Jul 20 2015 at 12:35:08
Frequency: 1.00Hz.
CO2
Zero:  Value:0.95  Date:18 Mar 2005	 at 07:22:33	
Span:  Value:1.00  Date:18 Mar 2005	 at 07:25:09	
H2O
Zero:  Value:0.71  Date:18 Mar 2005	 at 07:52:31	
Span:  Value:0.99  Date:18 Mar 2005	 at 11:44:01	
	Relative Time	Temperature	Pressure	Aux Input	CO2 Absorptance	CO2 mmol/m3	CO2 mg/m3	CO2 umol/mol	H2O Absorptance	H2O mmol/m3	H2O g/m3	H2O mmol/mol	H2O(°C)	Cooler Voltage
	0.12	36.83	73.69	0.00	0.0655	11.31	497.7	395.63	0.0715	570.6	10.271	19.96	12.67	1.77
	1.12	36.83	73.72	0.00	0.0653	11.29	496.6	394.61	0.0717	573.9	10.330	20.06	12.75	1.77
	2.12	36.78	73.72	-0.00	0.0653	11.28	496.4	394.37	0.0745	602.6	10.846	21.06	13.50	1.77
	3.12	36.81	73.69	-0.00	0.0651	11.22	493.6	392.32	0.0773	645.1	11.612	22.56	14.55	1.77
	4.12	36.83	73.72	-0.00	0.0650	11.23	494.1	392.58	0.0755	624.3	11.238	21.83	14.05	1.77
	5.13	36.83	73.69	-0.00	0.0650	11.21	493.4	392.19	0.0765	639.3	11.507	22.36	14.41	1.77
	6.12	36.83	73.72	0.00	0.0650	11.21	493.2	391.89	0.0757	626.3	11.273	21.89	14.09	1.77
	7.11	36.82	73.67	0.00	0.0649	11.19	492.4	391.52	0.0754	630.0	11.340	22.04	14.18	1.77
	8.14	36.84	73.66	-0.00	0.0647	11.17	491.5	390.82	0.0757	626.5	11.278	21.92	14.10	1.77
	9.11	36.82	73.67	0.00	0.0648	11.16	491.1	390.44	0.0764	632.6	11.388	22.13	14.25	1.77
	10.12	36.85	73.67	0.00	0.0650	11.20	492.6	391.69	0.0753	619.6	11.152	21.68	13.93	1.77
	11.12	36.81	73.67	-0.00	0.0649	11.19	492.3	391.40	0.0760	624.1	11.234	21.83	14.04	1.77
	12.12	36.86	73.69	0.00	0.0648	11.17	491.5	390.67	0.0767	635.7	11.443	22.23	14.33	1.77
	13.12	36.88	73.69	0.00	0.0650	11.20	492.6	391.62	0.0765	634.8	11.426	22.20	14.30	1.77
	14.13	36.87	73.69	-0.00	0.0649	11.19	492.6	391.56	0.0758	625.0	11.249	21.86	14.06	1.77
	15.20	36.88	73.67	0.00	0.0650	11.18	492.1	391.31	0.0764	628.4	11.311	21.99	14.15	1.77
	16.11	36.88	73.67	0.00	0.0649	11.18	491.8	391.07	0.0770	632.0	11.375	22.11	14.24	1.77
	17.13	36.88	73.69	-0.00	0.0648	11.17	491.4	390.61	0.0786	656.0	11.808	22.95	14.81	1.77
	18.11	36.93	73.69	0.00	0.0649	11.17	491.6	390.86	0.0771	645.8	11.624	22.59	14.57	1.77
	19.11	36.89	73.72	0.00	0.0647	11.16	490.9	390.11	0.0759	623.9	11.230	21.81	14.04	1.77
	20.11	36.85	73.69	0.00	0.0648	11.17	491.3	390.52	0.0782	657.0	11.825	22.98	14.83	1.77
	21.11	36.90	73.69	0.00	0.0648	11.15	490.8	390.20	0.0782	659.7	11.875	23.08	14.90	1.77
	22.20	36.93	73.69	-0.00	0.0646	11.12	489.5	389.17	0.0785	660.3	11.886	23.10	14.92	1.77
	23.14	36.89	73.69	0.00	0.0648	11.16	491.0	390.37	0.0779	650.9	11.717	22.77	14.69	1.77
	24.12	36.92	73.72	0.00	0.0647	11.14	490.1	389.51	0.0784	660.1	11.882	23.08	14.91	1.77
	25.13	36.93	73.69	-0.00	0.0646	11.14	490.0	389.57	0.0793	668.6	12.034	23.39	15.11	1.77
	26.11	36.93	73.69	0.00	0.0646	11.14	490.2	389.73	0.0792	662.4	11.923	23.17	14.97	1.77
	27.13	36.93	73.67	-0.00	0.0645	11.10	488.4	388.48	0.0805	680.2	12.244	23.81	15.38	1.77
	28.13	36.93	73.69	-0.00	0.0646	11.10	488.4	388.31	0.0796	680.2	12.243	23.80	15.38	1.77
	29.11	36.92	73.72	0.00	0.0647	11.13	489.8	389.26	0.0794	677.3	12.192	23.69	15.31	1.77
	30.11	36.93	73.67	0.00	0.0644	11.07	487.1	387.41	0.0799	680.2	12.244	23.80	15.38	1.77
	31.12	36.93	73.67	-0.00	0.0646	11.11	488.8	388.79	0.0791	665.8	11.984	23.30	15.05	1.77
	32.10	36.87	73.72	0.00	0.0647	11.12	489.3	388.84	0.0782	660.5	11.888	23.09	14.92	1.77
	33.13	36.93	73.69	-0.00	0.0647	11.15	490.8	390.19	0.0784	650.4	11.708	22.75	14.68	1.77
	34.13	36.95	73.69	-0.00	0.0647	11.16	490.9	390.36	0.0772	630.5	11.348	22.06	14.20	1.77
	35.12	36.94	73.69	0.00	0.0647	11.15	490.5	389.97	0.0792	669.5	12.051	23.42	15.13	1.77
	36.10	36.95	73.72	0.00	0.0645	11.11	488.7	388.47	0.0799	675.9	12.166	23.64	15.28	1.77
	37.11	36.92	73.69	0.00	0.0645	11.10	488.4	388.31	0.0807	686.9	12.365	24.03	15.53	1.77
	38.10	36.95	73.67	0.00	0.0645	11.10	488.2	388.31	0.0809	689.7	12.414	24.14	15.60	1.77
	39.13	36.95	73.69	0.00	0.0644	11.07	487.3	387.45	0.0821	703.1	12.656	24.60	15.90	1.77
	40.11	36.97	73.67	0.00	0.0644	11.08	487.3	387.66	0.0811	696.9	12.544	24.39	15.76	1.77
	41.20	36.97	73.69	-0.00	0.0645	11.11	489.0	388.89	0.0809	685.7	12.343	23.99	15.51	1.77
	42.12	37.00	73.72	-0.00	0.0645	11.10	488.5	388.36	0.0807	683.4	12.301	23.90	15.46	1.77
	43.12	36.97	73.69	0.00	0.0645	11.10	488.5	388.46	0.0806	685.6	12.341	23.99	15.50	1.77
	44.12	36.94	73.69	-0.00	0.0644	11.09	487.9	387.95	0.0811	693.2	12.477	24.25	15.67	1.77
	45.12	36.97	73.69	0.00	0.0646	11.13	489.9	389.59	0.0807	685.5	12.340	23.99	15.50	1.77
	46.13	36.94	73.69	-0.00	0.0645	11.11	488.7	388.54	0.0810	690.5	12.428	24.16	15.61	1.77
	47.11	36.99	73.69	0.00	0.0644	11.09	487.9	387.97	0.0814	697.7	12.558	24.41	15.78	1.77
	48.10	36.99	73.69	0.00	0.0643	11.07	486.9	387.20	0.0814	697.0	12.546	24.39	15.76	1.77
	49.11	37.03	73.69	0.00	0.0646	11.09	487.8	387.99	0.0814	694.8	12.506	24.31	15.71	1.77
	50.11	37.02	73.69	0.00	0.0646	11.11	488.7	388.65	0.0816	696.7	12.540	24.38	15.76	1.77
	51.11	37.02	73.69	0.00	0.0645	11.11	488.6	388.61	0.0817	699.7	12.594	24.48	15.82	1.77
	52.12	37.03	73.72	0.00	0.0645	11.08	487.5	387.55	0.0819	701.8	12.633	24.55	15.87	1.77
	53.12	36.95	73.69	0.00	0.0644	11.08	487.7	387.77	0.0818	702.0	12.636	24.56	15.87	1.77
	54.12	37.04	73.69	0.00	0.0643	11.07	486.9	387.27	0.0817	700.1	12.602	24.50	15.83	1.77
	55.13	36.99	73.69	0.00	0.0644	11.09	488.1	388.15	0.0820	703.7	12.667	24.62	15.91	1.77
	56.13	37.02	73.67	-0.00	0.0645	11.08	487.7	387.98	0.0820	702.6	12.648	24.60	15.89	1.77
	57.11	36.97	73.69	0.00	0.0645	11.09	488.1	388.10	0.0823	706.3	12.713	24.71	15.97	1.77
	58.13	36.98	73.67	-0.00	0.0644	11.08	487.4	387.73	0.0832	718.6	12.935	25.15	16.24	1.77
	59.12	37.02	73.64	-0.00	0.0645	11.08	487.3	387.85	0.0831	720.1	12.961	25.22	16.27	1.77
	60.12	37.02	73.69	-0.00	0.0644	11.07	486.9	387.23	0.0833	723.7	13.027	25.33	16.35	1.77
	61.11	37.05	73.64	0.00	0.0644	11.09	487.8	388.22	0.0831	717.9	12.921	25.14	16.23	1.77
	62.12	36.97	73.69	0.00	0.0644	11.08	487.5	387.62	0.0832	718.2	12.927	25.13	16.23	1.77
	63.10	36.98	73.67	0.00	0.0645	11.10	488.3	388.47	0.0835	722.4	13.003	25.28	16.32	1.77
	64.12	37.02	73.67	0.00	0.0645	11.09	488.2	388.37	0.0835	722.4	13.003	25.29	16.32	1.77
	65.10	37.02	73.67	0.00	0.0643	11.05	486.4	386.96	0.0834	723.8	13.028	25.34	16.35	1.77
	66.11	37.05	73.64	0.00	0.0644	11.06	486.8	387.48	0.0834	723.1	13.016	25.32	16.34	1.77
	67.10	37.02	73.67	0.00	0.0644	11.08	487.7	387.98	0.0839	726.7	13.081	25.44	16.42	1.77
	68.13	37.02	73.67	0.00	0.0643	11.06	486.4	386.99	0.0851	741.6	13.349	25.96	16.74	1.77
	69.12	37.02	73.72	0.00	0.0644	11.06	486.5	386.76	0.0846	739.5	13.311	25.87	16.69	1.77
	70.12	37.03	73.67	-0.00	0.0643	11.06	486.5	387.03	0.0849	741.8	13.352	25.97	16.74	1.77
	71.14	36.98	73.69	-0.00	0.0644	11.07	487.2	387.41	0.0844	736.0	13.248	25.75	16.62	1.77
	72.18	36.99	73.67	0.00	0.0643	11.07	487.2	387.56	0.0845	736.0	13.248	25.76	16.62	1.77
	73.12	37.01	73.67	0.00	0.0642	11.05	486.1	386.69	0.0847	738.9	13.301	25.87	16.68	1.77
	74.10	37.04	73.67	0.00	0.0644	11.07	487.0	387.48	0.0847	739.4	13.308	25.88	16.69	1.77
	75.13	37.03	73.67	-0.00	0.0644	11.07	487.2	387.61	0.0848	740.4	13.327	25.92	16.71	1.77
	76.13	36.98	73.64	-0.00	0.0643	11.07	487.0	387.54	0.0851	745.1	13.412	26.09	16.81	1.77
	77.13	37.04	73.66	-0.00	0.0644	11.07	487.2	387.60	0.0850	743.6	13.385	26.03	16.78	1.77
	78.11	37.05	73.69	0.00	0.0644	11.06	486.8	387.23	0.0850	742.7	13.369	25.99	16.76	1.77
	79.11	37.07	73.69	0.00	0.0643	11.08	487.4	387.67	0.0851	745.1	13.412	26.08	16.81	1.77
	80.12	37.06	73.67	0.00	0.0643	11.05	486.4	387.02	0.0853	746.9	13.443	26.15	16.85	1.77
	81.12	37.05	73.69	0.00	0.0643	11.07	486.9	387.29	0.0859	751.5	13.527	26.30	16.95	1.77
	82.12	37.05	73.67	0.00	0.0643	11.05	486.1	386.79	0.0857	752.0	13.536	26.33	16.96	1.78
	83.12	37.01	73.67	0.00	0.0643	11.05	486.1	386.68	0.0862	757.7	13.638	26.52	17.07	1.77
	84.13	37.05	73.67	0.00	0.0642	11.04	485.7	386.49	0.0862	759.5	13.672	26.59	17.12	1.77
	85.13	37.06	73.69	-0.00	0.0642	11.02	484.8	385.59	0.0860	755.7	13.602	26.45	17.04	1.77
	86.11	37.06	73.67	0.00	0.0642	11.02	484.9	385.87	0.0867	763.4	13.740	26.73	17.20	1.77
	87.13	37.08	73.67	0.00	0.0644	11.07	486.9	387.47	0.0859	754.9	13.588	26.43	17.02	1.77
	88.11	37.08	73.67	0.00	0.0642	11.05	486.1	386.82	0.0861	759.1	13.664	26.58	17.11	1.78
	89.11	37.07	73.67	0.00	0.0643	11.05	486.0	386.75	0.0862	757.9	13.642	26.54	17.08	1.78
	90.12	37.08	73.69	-0.00	0.0643	11.05	486.1	386.68	0.0864	760.1	13.681	26.60	17.13	1.78
	91.12	37.05	73.67	-0.00	0.0643	11.06	486.5	387.11	0.0865	763.5	13.742	26.73	17.20	1.77
	92.12	37.11	73.69	0.00	0.0642	11.04	485.7	386.41	0.0863	759.2	13.666	26.58	17.11	1.78
	93.12	37.11	73.67	0.00	0.0643	11.05	486.0	386.78	0.0862	758.0	13.644	26.54	17.09	1.78
	94.13	37.11	73.69	-0.00	0.0643	11.04	486.0	386.62	0.0868	765.7	13.783	26.80	17.25	1.78
	95.13	37.07	73.67	-0.00	0.0643	11.05	486.1	386.82	0.0871	773.2	13.917	27.07	17.40	1.77
	96.13	37.11	73.69	-0.00	0.0643	11.05	486.3	386.86	0.0873	773.7	13.927	27.08	17.41	1.78
	97.11	37.11	73.69	0.00	0.0643	11.04	485.8	386.44	0.0875	774.1	13.934	27.10	17.42	1.78
	98.12	37.10	73.67	0.00	0.0642	11.03	485.5	386.32	0.0880	784.0	14.111	27.45	17.62	1.78
	99.12	37.11	73.67	-0.00	0.0643	11.05	486.2	386.91	0.0877	780.3	14.046	27.32	17.55	1.78
	100.11	37.11	73.67	0.00	0.0642	11.03	485.3	386.21	0.0875	777.9	14.003	27.24	17.50	1.78
	101.12	37.11	73.69	0.00	0.0642	11.04	485.6	386.33	0.0867	767.5	13.814	26.86	17.28	1.78
	102.10	37.13	73.67	0.00	0.0643	11.04	485.9	386.76	0.0872	768.4	13.832	26.91	17.30	1.78
	103.13	37.12	73.67	-0.00	0.0643	11.05	486.0	386.79	0.0874	776.0	13.969	27.18	17.46	1.78
	104.10	37.12	73.69	0.00	0.0642	11.04	485.6	386.31	0.0875	776.2	13.972	27.17	17.46	1.78
	105.11	37.15	73.67	0.00	0.0643	11.03	485.5	386.42	0.0877	777.9	14.002	27.24	17.50	1.78
	106.10	37.13	73.72	0.00	0.0643	11.04	485.6	386.19	0.0879	780.6	14.051	27.32	17.55	1.78
	107.13	37.13	73.69	0.00	0.0643	11.05	486.0	386.65	0.0880	781.3	14.064	27.35	17.57	1.78
	108.14	37.15	73.69	-0.00	0.0642	11.04	485.8	386.54	0.0886	792.2	14.260	27.73	17.79	1.78
	109.12	37.15	73.69	-0.00	0.0643	11.04	485.8	386.56	0.0879	780.9	14.056	27.34	17.56	1.78
	110.14	37.15	73.72	-0.00	0.0644	11.06	486.6	387.07	0.0873	774.9	13.948	27.12	17.44	1.78
	111.12	37.15	73.69	-0.00	0.0642	11.04	485.6	386.39	0.0879	780.1	14.042	27.31	17.54	1.78
	112.12	37.14	73.67	0.00	0.0642	11.01	484.4	385.51	0.0881	783.3	14.100	27.43	17.61	1.78
	113.12	37.15	73.69	-0.00	0.0642	11.05	486.0	386.71	0.0883	785.9	14.146	27.51	17.66	1.78
	114.11	37.18	73.69	0.00	0.0643	11.04	485.8	386.57	0.0886	789.9	14.219	27.66	17.74	1.78
	115.11	37.18	73.69	0.00	0.0642	11.03	485.5	386.32	0.0883	789.4	14.209	27.64	17.73	1.78
	116.11	37.20	73.67	0.00	0.0642	11.04	486.0	386.84	0.0880	782.2	14.079	27.40	17.59	1.78
	117.13	37.18	73.69	0.00	0.0642	11.04	485.6	386.42	0.0880	783.6	14.104	27.43	17.62	1.78
	118.11	37.18	73.67	0.00	0.0642	11.03	485.1	386.14	0.0880	783.2	14.097	27.43	17.61	1.78
	119.12	37.18	73.67	-0.00	0.0642	11.04	485.6	386.56	0.0883	785.2	14.134	27.50	17.65	1.78
	120.11	37.17	73.69	0.00	0.0642	11.04	485.6	386.38	0.0885	789.9	14.218	27.65	17.74	1.78
	121.14	37.20	73.69	0.00	0.0642	11.04	485.6	386.43	0.0885	790.2	14.223	27.67	17.75	1.78
	122.12	37.20	73.67	-0.00	0.0643	11.05	486.3	387.11	0.0885	790.7	14.232	27.69	17.76	1.78
