Jul 22 2015 at 10:08:29
Frequency: 1.00Hz.
CO2
Zero:  Value:0.95  Date:18 Mar 2005	 at 07:22:33	
Span:  Value:1.00  Date:18 Mar 2005	 at 07:25:09	
H2O
Zero:  Value:0.71  Date:18 Mar 2005	 at 07:52:31	
Span:  Value:0.99  Date:18 Mar 2005	 at 11:44:01	
	Relative Time	Temperature	Pressure	Aux Input	CO2 Absorptance	CO2 mmol/m3	CO2 mg/m3	CO2 umol/mol	H2O Absorptance	H2O mmol/m3	H2O g/m3	H2O mmol/mol	H2O(°C)	Cooler Voltage
	0.47	27.54	73.48	0.00	0.0681	11.89	523.3	404.61	0.0684	538.6	9.695	18.32	11.33	1.62
	1.48	27.59	73.51	-0.00	0.0681	11.90	523.7	404.83	0.0688	542.0	9.756	18.44	11.43	1.62
	2.46	27.61	73.51	0.00	0.0681	11.92	524.5	405.45	0.0688	544.4	9.799	18.52	11.49	1.62
	3.46	27.59	73.48	0.00	0.0681	11.91	524.1	405.32	0.0686	540.7	9.732	18.40	11.39	1.62
	4.46	27.59	73.51	0.00	0.0681	11.91	524.1	405.16	0.0687	543.1	9.775	18.47	11.46	1.62
	5.54	27.61	73.48	0.00	0.0682	11.93	524.7	405.82	0.0690	546.3	9.833	18.59	11.55	1.62
	6.46	27.63	73.51	0.00	0.0681	11.90	523.4	404.68	0.0689	543.9	9.790	18.50	11.48	1.62
	7.47	27.63	73.51	-0.00	0.0679	11.89	523.3	404.57	0.0686	544.1	9.794	18.51	11.49	1.62
	8.47	27.61	73.51	-0.00	0.0680	11.89	523.3	404.58	0.0689	544.2	9.795	18.51	11.49	1.62
	9.55	27.61	73.51	0.00	0.0681	11.91	524.1	405.18	0.0689	545.4	9.816	18.55	11.52	1.62
	10.47	27.61	73.51	-0.00	0.0680	11.89	523.1	404.41	0.0688	542.1	9.758	18.44	11.43	1.62
	11.47	27.65	73.48	0.00	0.0680	11.89	523.1	404.64	0.0686	541.6	9.749	18.43	11.42	1.62
	12.46	27.60	73.48	-0.00	0.0679	11.87	522.2	403.87	0.0684	539.5	9.710	18.36	11.36	1.62
	13.48	27.65	73.51	-0.00	0.0679	11.86	521.8	403.49	0.0683	536.9	9.665	18.27	11.29	1.62
	14.46	27.63	73.48	0.00	0.0679	11.87	522.1	403.79	0.0687	541.3	9.744	18.42	11.41	1.62
	15.46	27.63	73.48	0.00	0.0680	11.89	523.2	404.62	0.0688	543.6	9.785	18.50	11.47	1.62
	16.46	27.65	73.54	0.00	0.0680	11.90	523.6	404.73	0.0690	546.1	9.830	18.57	11.54	1.62
	17.49	27.63	73.48	-0.00	0.0680	11.89	523.0	404.49	0.0687	544.9	9.808	18.54	11.51	1.62
	18.47	27.59	73.51	0.00	0.0681	11.88	522.5	403.93	0.0689	542.8	9.770	18.46	11.45	1.62
	19.48	27.65	73.51	-0.00	0.0683	11.95	525.9	406.63	0.0692	548.5	9.873	18.66	11.61	1.62
	20.47	27.63	73.48	0.00	0.0683	11.93	524.9	405.98	0.0695	549.8	9.897	18.71	11.64	1.62
	21.48	27.63	73.51	0.00	0.0683	11.96	526.4	407.02	0.0696	552.4	9.943	18.79	11.71	1.62
	22.46	27.65	73.51	0.00	0.0682	11.94	525.4	406.25	0.0690	548.0	9.864	18.64	11.59	1.62
	23.48	27.61	73.48	0.00	0.0684	11.96	526.1	406.86	0.0695	550.2	9.904	18.72	11.65	1.62
	24.48	27.60	73.48	-0.00	0.0684	11.99	527.4	407.89	0.0696	552.9	9.952	18.81	11.73	1.62
	25.49	27.63	73.51	-0.00	0.0684	11.99	527.8	408.04	0.0695	552.5	9.945	18.79	11.72	1.62
	26.47	27.61	73.51	-0.00	0.0684	11.99	527.5	407.84	0.0695	552.6	9.948	18.80	11.72	1.62
	27.49	27.65	73.54	-0.00	0.0684	11.97	526.9	407.22	0.0694	551.0	9.917	18.74	11.68	1.62
	28.47	27.63	73.51	-0.00	0.0684	11.98	526.9	407.38	0.0695	550.8	9.914	18.74	11.67	1.62
	29.47	27.63	73.51	0.00	0.0683	11.95	525.9	406.63	0.0693	548.4	9.870	18.65	11.60	1.62
	30.47	27.63	73.48	0.00	0.0685	12.00	528.0	408.38	0.0698	555.5	9.999	18.90	11.80	1.62
	31.46	27.62	73.48	0.00	0.0685	12.00	528.2	408.51	0.0698	556.0	10.008	18.92	11.81	1.62
	32.46	27.63	73.48	0.00	0.0684	11.96	526.1	406.88	0.0697	551.2	9.921	18.76	11.68	1.62
	33.46	27.63	73.48	0.00	0.0684	11.99	527.7	408.16	0.0699	557.0	10.026	18.95	11.84	1.62
	34.46	27.67	73.51	0.00	0.0685	11.99	527.6	407.94	0.0700	557.6	10.036	18.97	11.86	1.62
	35.48	27.63	73.51	-0.00	0.0684	12.01	528.3	408.47	0.0698	557.5	10.036	18.97	11.85	1.62
	36.47	27.63	73.48	0.00	0.0684	11.97	526.8	407.47	0.0698	555.6	10.002	18.91	11.80	1.62
	37.55	27.65	73.51	-0.00	0.0684	12.00	527.9	408.18	0.0700	558.5	10.052	19.00	11.88	1.62
	38.47	27.65	73.51	-0.00	0.0686	12.00	528.1	408.33	0.0703	559.7	10.074	19.04	11.91	1.62
	39.48	27.65	73.51	-0.00	0.0687	12.04	529.7	409.59	0.0705	562.1	10.117	19.12	11.98	1.62
	40.47	27.63	73.51	-0.00	0.0688	12.06	530.5	410.12	0.0706	563.8	10.148	19.18	12.02	1.62
	41.48	27.66	73.51	0.00	0.0688	12.06	530.8	410.40	0.0708	566.3	10.194	19.27	12.09	1.62
	42.46	27.67	73.48	-0.00	0.0686	12.05	530.0	410.00	0.0704	562.8	10.130	19.15	12.00	1.62
	43.48	27.63	73.48	0.00	0.0688	12.05	530.4	410.22	0.0706	563.9	10.149	19.19	12.03	1.62
	44.48	27.63	73.51	0.00	0.0688	12.03	529.4	409.32	0.0708	562.8	10.131	19.15	12.00	1.62
	45.49	27.67	73.51	0.00	0.0688	12.07	530.9	410.53	0.0708	567.6	10.216	19.31	12.13	1.62
	46.47	27.67	73.48	0.00	0.0688	12.06	530.8	410.56	0.0708	566.7	10.201	19.29	12.10	1.62
	47.55	27.67	73.51	0.00	0.0689	12.08	531.4	410.89	0.0711	569.3	10.248	19.37	12.17	1.62
	48.48	27.66	73.51	-0.00	0.0686	12.08	531.4	410.93	0.0708	569.0	10.242	19.36	12.17	1.62
	49.48	27.66	73.48	-0.00	0.0688	12.07	530.9	410.66	0.0711	569.0	10.243	19.37	12.17	1.62
	50.48	27.66	73.51	0.00	0.0686	12.03	529.4	409.32	0.0709	567.8	10.221	19.32	12.13	1.62
	51.48	27.69	73.51	0.00	0.0686	12.06	530.7	410.40	0.0708	569.2	10.245	19.37	12.17	1.62
	52.46	27.65	73.48	0.00	0.0688	12.06	530.4	410.26	0.0710	568.7	10.237	19.36	12.16	1.63
	53.48	27.66	73.51	0.00	0.0688	12.04	529.8	409.67	0.0712	569.6	10.253	19.38	12.18	1.62
	54.46	27.66	73.48	0.00	0.0687	12.04	529.6	409.65	0.0711	568.4	10.232	19.35	12.15	1.62
	55.47	27.65	73.48	0.00	0.0685	12.03	529.2	409.35	0.0708	569.0	10.242	19.37	12.17	1.62
	56.53	27.67	73.51	0.00	0.0688	12.08	531.6	411.09	0.0715	576.1	10.371	19.60	12.36	1.62
	57.47	27.64	73.48	0.00	0.0688	12.08	531.4	411.03	0.0715	576.0	10.368	19.60	12.35	1.62
	58.47	27.66	73.51	0.00	0.0689	12.08	531.4	410.88	0.0718	577.8	10.400	19.66	12.40	1.63
	59.47	27.66	73.48	0.00	0.0687	12.07	531.0	410.72	0.0716	575.8	10.364	19.60	12.35	1.62
	60.54	27.66	73.51	-0.00	0.0688	12.06	530.5	410.23	0.0718	576.8	10.383	19.62	12.37	1.62
	61.46	27.66	73.51	0.00	0.0687	12.08	531.6	411.09	0.0717	580.0	10.439	19.73	12.46	1.62
	62.48	27.69	73.51	-0.00	0.0687	12.05	530.2	410.04	0.0717	573.9	10.331	19.53	12.30	1.62
	63.46	27.66	73.54	0.00	0.0687	12.05	530.2	409.82	0.0718	579.5	10.430	19.71	12.44	1.63
	64.47	27.66	73.48	-0.00	0.0686	12.05	530.2	410.11	0.0717	579.6	10.432	19.73	12.45	1.63
	65.47	27.66	73.48	-0.00	0.0686	12.02	528.9	409.07	0.0715	575.2	10.353	19.58	12.33	1.62
	66.46	27.69	73.51	0.00	0.0686	12.00	528.1	408.36	0.0716	570.5	10.269	19.41	12.21	1.62
	67.47	27.66	73.48	0.00	0.0687	12.05	530.2	410.08	0.0720	580.5	10.450	19.76	12.47	1.62
	68.47	27.69	73.48	-0.00	0.0686	12.08	531.7	411.33	0.0720	584.7	10.525	19.90	12.58	1.62
	69.47	27.68	73.51	0.00	0.0686	12.04	529.7	409.59	0.0720	583.7	10.507	19.86	12.55	1.63
	70.45	27.68	73.51	0.00	0.0684	12.00	527.9	408.20	0.0711	574.2	10.336	19.54	12.31	1.63
	71.46	27.66	73.51	0.00	0.0687	12.05	530.0	409.86	0.0720	580.3	10.445	19.74	12.46	1.62
	72.46	27.69	73.48	0.00	0.0687	12.07	531.0	410.77	0.0723	586.6	10.559	19.97	12.63	1.63
	73.48	27.66	73.48	0.00	0.0686	12.04	529.9	409.88	0.0721	584.0	10.512	19.88	12.56	1.63
	74.47	27.64	73.48	0.00	0.0686	12.00	528.2	408.53	0.0721	576.3	10.374	19.61	12.36	1.63
	75.47	27.70	73.51	0.00	0.0684	12.00	527.8	408.20	0.0721	582.6	10.487	19.82	12.53	1.63
	76.47	27.71	73.51	0.00	0.0687	12.04	530.0	409.85	0.0724	586.6	10.558	19.96	12.63	1.63
	77.47	27.66	73.48	0.00	0.0686	12.03	529.5	409.59	0.0725	587.3	10.572	19.99	12.65	1.63
	78.48	27.66	73.51	-0.00	0.0687	12.03	529.5	409.41	0.0725	585.0	10.531	19.90	12.59	1.63
	79.55	27.68	73.51	0.00	0.0688	12.04	529.8	409.68	0.0730	588.8	10.598	20.03	12.69	1.63
	80.47	27.70	73.48	0.00	0.0685	12.04	529.7	409.80	0.0724	588.3	10.590	20.03	12.68	1.63
	81.48	27.68	73.48	0.00	0.0685	12.02	528.8	409.02	0.0721	583.4	10.502	19.86	12.55	1.63
	82.46	27.68	73.48	0.00	0.0685	12.02	528.8	409.07	0.0723	587.2	10.570	19.99	12.65	1.63
	83.48	27.68	73.54	0.00	0.0685	12.01	528.6	408.63	0.0723	585.2	10.533	19.90	12.59	1.63
	84.46	27.73	73.51	0.00	0.0686	12.04	530.0	409.88	0.0727	591.7	10.650	20.13	12.76	1.63
	85.47	27.68	73.51	0.00	0.0685	12.02	528.9	409.01	0.0725	589.5	10.612	20.06	12.71	1.63
	86.47	27.70	73.46	0.00	0.0685	12.02	528.9	409.30	0.0721	582.8	10.490	19.84	12.53	1.63
	87.48	27.70	73.48	0.00	0.0686	12.01	528.6	408.94	0.0725	586.2	10.552	19.95	12.62	1.63
	88.47	27.70	73.48	-0.00	0.0685	12.02	528.8	409.04	0.0726	588.5	10.594	20.03	12.68	1.63
	89.48	27.73	73.48	-0.00	0.0687	12.01	528.5	408.89	0.0729	587.9	10.583	20.01	12.67	1.63
	90.48	27.72	73.51	-0.00	0.0687	12.04	529.8	409.73	0.0730	591.0	10.639	20.11	12.75	1.63
	91.48	27.70	73.51	-0.00	0.0688	12.04	529.9	409.79	0.0732	592.1	10.659	20.15	12.77	1.63
	92.48	27.73	73.48	-0.00	0.0684	11.98	527.3	407.95	0.0726	588.1	10.585	20.02	12.67	1.63
	93.48	27.73	73.51	-0.00	0.0686	12.04	529.9	409.86	0.0729	593.5	10.683	20.20	12.81	1.63
	94.46	27.70	73.48	0.00	0.0686	12.01	528.6	408.95	0.0731	591.7	10.651	20.14	12.76	1.63
	95.47	27.70	73.51	0.00	0.0685	11.98	527.0	407.56	0.0730	589.1	10.604	20.04	12.70	1.63
	96.47	27.70	73.51	-0.00	0.0686	12.04	529.7	409.62	0.0731	595.0	10.710	20.25	12.85	1.63
	97.55	27.70	73.48	-0.00	0.0685	12.01	528.4	408.81	0.0730	591.9	10.654	20.15	12.77	1.63
	98.45	27.71	73.51	0.00	0.0684	12.00	528.1	408.42	0.0728	593.0	10.674	20.18	12.80	1.63
	99.48	27.72	73.48	-0.00	0.0687	12.06	530.5	410.40	0.0733	596.6	10.739	20.31	12.89	1.63
	100.47	27.72	73.48	0.00	0.0686	12.02	528.8	409.07	0.0732	595.4	10.718	20.27	12.86	1.63
	101.46	27.74	73.51	0.00	0.0685	12.02	528.9	409.06	0.0733	597.4	10.754	20.33	12.91	1.63
	102.46	27.72	73.48	0.00	0.0688	12.01	528.5	408.84	0.0737	597.8	10.760	20.35	12.92	1.63
	103.46	27.72	73.48	0.00	0.0687	12.05	530.1	410.11	0.0736	598.9	10.780	20.39	12.95	1.63
	104.55	27.71	73.51	-0.00	0.0686	12.01	528.3	408.58	0.0735	597.1	10.747	20.32	12.90	1.63
	105.47	27.72	73.51	-0.00	0.0685	11.99	527.6	408.01	0.0734	596.9	10.745	20.31	12.90	1.63
	106.49	27.74	73.51	-0.00	0.0686	12.02	528.9	409.05	0.0736	599.7	10.795	20.41	12.97	1.63
	107.47	27.72	73.48	0.00	0.0684	12.03	529.3	409.52	0.0734	601.2	10.822	20.47	13.01	1.63
	108.48	27.72	73.48	-0.00	0.0684	11.99	527.5	408.07	0.0735	597.8	10.760	20.35	12.92	1.63
	109.54	27.72	73.48	0.00	0.0686	12.02	528.7	409.03	0.0734	598.2	10.768	20.36	12.93	1.63
	110.48	27.73	73.48	0.00	0.0686	12.04	529.8	409.93	0.0736	603.5	10.863	20.54	13.07	1.63
	111.48	27.74	73.51	-0.00	0.0685	11.99	527.3	407.87	0.0734	596.7	10.740	20.31	12.89	1.63
	112.48	27.72	73.51	-0.00	0.0685	11.99	527.8	408.15	0.0736	600.0	10.801	20.42	12.98	1.63
	113.55	27.76	73.51	0.00	0.0685	12.00	528.1	408.44	0.0739	602.9	10.852	20.52	13.05	1.63
	114.47	27.74	73.46	-0.00	0.0684	11.98	527.2	408.04	0.0737	600.1	10.802	20.44	12.98	1.63
	115.49	27.74	73.51	-0.00	0.0687	12.03	529.4	409.43	0.0739	603.2	10.858	20.53	13.06	1.63
	116.47	27.73	73.51	0.00	0.0685	12.00	527.8	408.22	0.0737	602.1	10.839	20.49	13.03	1.63
	117.47	27.76	73.51	0.00	0.0686	12.01	528.6	408.86	0.0740	603.4	10.861	20.53	13.06	1.63
	118.47	27.73	73.56	-0.00	0.0687	12.01	528.3	408.28	0.0742	603.5	10.863	20.52	13.07	1.63
	119.48	27.74	73.51	-0.00	0.0684	11.98	527.0	407.58	0.0737	602.9	10.853	20.52	13.05	1.63
	120.46	27.76	73.48	0.00	0.0685	12.02	529.1	409.36	0.0741	606.6	10.918	20.65	13.15	1.63
	121.46	27.74	73.48	0.00	0.0686	12.04	529.7	409.82	0.0743	607.7	10.939	20.69	13.17	1.64
