Jul 22 2015 at 9:07:27
Frequency: 1Hz.
CO2
Zero:  Value:0.954578  Date:18 Mar 2005	 at 07:22:33	
Span:  Value:0.999099  Date:18 Mar 2005	 at 07:25:09	
H2O
Zero:  Value:0.712542  Date:18 Mar 2005	 at 07:52:31	
Span:  Value:0.993508  Date:18 Mar 2005	 at 11:44:01	
	Relative Time	Temperature	Pressure	Aux Input	CO2 Absorptance	CO2 mmol/m3	CO2 mg/m3	CO2 umol/mol	H2O Absorptance	H2O mmol/m3	H2O g/m3	H2O mmol/mol	H2O(°C)	Cooler Voltage
	0.70	17.87	73.46	0.00	0.0773	14.08	619.7	463.89	0.0665	517.4	9.314	17.04	10.23	1.43
	1.72	17.87	73.48	0.00	0.0774	14.02	617.0	461.71	0.0668	520.9	9.375	17.15	10.33	1.43
	2.70	17.85	73.43	0.00	0.0768	14.01	616.6	461.72	0.0676	526.0	9.468	17.33	10.48	1.43
	3.71	17.87	73.48	0.00	0.0765	13.90	611.8	457.79	0.0679	535.4	9.637	17.63	10.75	1.44
	4.71	17.87	73.48	-0.00	0.0762	13.83	608.4	455.30	0.0671	525.3	9.455	17.30	10.46	1.44
	5.72	17.89	73.43	-0.00	0.0760	13.78	606.5	454.16	0.0675	529.9	9.538	17.46	10.59	1.43
	6.79	17.89	73.46	0.00	0.0758	13.72	603.7	451.95	0.0676	529.1	9.523	17.43	10.57	1.43
	7.71	17.90	73.48	0.00	0.0760	13.78	606.3	453.73	0.0679	532.7	9.589	17.54	10.67	1.43
	8.72	17.90	73.51	0.00	0.0755	13.66	601.1	449.73	0.0680	534.8	9.627	17.61	10.73	1.43
	9.70	17.90	73.43	0.00	0.0750	13.55	596.1	446.46	0.0687	541.4	9.744	17.84	10.91	1.44
	10.73	17.90	73.46	-0.00	0.0750	13.55	596.3	446.44	0.0684	539.6	9.713	17.78	10.87	1.44
	11.70	17.90	73.46	0.00	0.0749	13.49	593.5	444.35	0.0683	539.1	9.704	17.76	10.85	1.43
	12.71	17.90	73.48	-0.00	0.0750	13.53	595.3	445.50	0.0682	535.8	9.644	17.64	10.76	1.43
	13.70	17.90	73.43	0.00	0.0747	13.48	593.1	444.21	0.0682	537.6	9.676	17.71	10.81	1.43
	14.71	17.90	73.48	0.00	0.0746	13.45	591.7	442.84	0.0686	539.2	9.706	17.76	10.85	1.43
	15.77	17.92	73.48	0.00	0.0745	13.41	589.8	441.47	0.0681	536.2	9.652	17.66	10.77	1.44
	16.71	17.92	73.46	0.00	0.0745	13.42	590.4	442.02	0.0683	538.3	9.690	17.73	10.83	1.44
	17.71	17.92	73.48	-0.00	0.0745	13.41	590.0	441.62	0.0686	542.3	9.761	17.86	10.94	1.43
	18.70	17.94	73.51	0.00	0.0744	13.39	589.0	440.73	0.0696	550.8	9.914	18.13	11.18	1.44
	19.72	17.92	73.46	0.00	0.0744	13.37	588.1	440.30	0.0698	559.6	10.072	18.43	11.41	1.43
	20.72	17.94	73.48	-0.00	0.0742	13.34	586.7	439.17	0.0701	558.3	10.050	18.39	11.38	1.44
	21.71	17.92	73.48	0.00	0.0742	13.34	587.1	439.38	0.0702	560.3	10.085	18.45	11.43	1.44
	22.71	17.94	73.48	-0.00	0.0741	13.32	585.9	438.57	0.0703	560.3	10.085	18.45	11.43	1.44
	23.73	17.94	73.48	-0.00	0.0739	13.27	583.8	436.93	0.0699	557.5	10.035	18.36	11.36	1.43
	24.71	17.94	73.48	-0.00	0.0739	13.27	583.8	436.95	0.0696	554.8	9.987	18.27	11.29	1.44
	25.72	17.92	73.46	-0.00	0.0741	13.31	585.7	438.50	0.0702	560.0	10.080	18.45	11.43	1.44
	26.80	17.94	73.48	-0.00	0.0739	13.26	583.5	436.75	0.0700	557.6	10.036	18.36	11.36	1.44
	27.71	17.94	73.48	0.00	0.0738	13.26	583.6	436.79	0.0718	575.4	10.357	18.95	11.84	1.44
	28.70	17.94	73.46	0.00	0.0738	13.24	582.6	436.22	0.0722	578.6	10.415	19.06	11.92	1.44
	29.72	17.94	73.48	-0.00	0.0738	13.23	582.1	435.67	0.0718	580.9	10.456	19.13	11.98	1.44
	30.72	17.95	73.51	-0.00	0.0739	13.26	583.3	436.49	0.0714	574.7	10.344	18.92	11.82	1.44
	31.78	17.95	73.48	0.00	0.0739	13.26	583.5	436.75	0.0713	571.6	10.290	18.83	11.74	1.44
	32.71	17.95	73.48	0.00	0.0738	13.23	582.3	435.85	0.0710	569.4	10.250	18.75	11.68	1.44
	33.71	17.97	73.48	0.00	0.0737	13.21	581.1	435.00	0.0713	572.2	10.299	18.85	11.75	1.44
	34.71	17.95	73.48	0.00	0.0737	13.22	581.6	435.37	0.0719	576.6	10.379	18.99	11.87	1.44
	35.71	17.94	73.48	-0.00	0.0737	13.21	581.2	435.01	0.0721	584.6	10.524	19.25	12.08	1.43
	36.71	17.97	73.48	0.00	0.0736	13.21	581.1	435.03	0.0721	582.5	10.485	19.19	12.02	1.44
	37.72	17.97	73.46	-0.00	0.0736	13.19	580.5	434.71	0.0723	584.3	10.517	19.25	12.07	1.44
	38.70	17.97	73.48	0.00	0.0735	13.17	579.6	433.89	0.0725	587.3	10.572	19.34	12.15	1.44
	39.72	17.95	73.48	-0.00	0.0734	13.14	578.4	432.93	0.0727	587.2	10.569	19.34	12.14	1.44
	40.78	17.97	73.46	0.00	0.0733	13.13	577.8	432.70	0.0730	593.0	10.674	19.54	12.30	1.44
	41.70	17.99	73.48	0.00	0.0732	13.10	576.4	431.47	0.0738	602.1	10.838	19.83	12.53	1.44
	42.71	17.99	73.48	0.00	0.0732	13.09	576.0	431.18	0.0737	600.3	10.806	19.77	12.48	1.44
	43.71	17.97	73.46	0.00	0.0729	13.03	573.3	429.32	0.0739	603.6	10.864	19.89	12.56	1.44
	44.79	17.99	73.46	-0.00	0.0730	13.04	573.7	429.62	0.0743	607.3	10.931	20.01	12.66	1.44
	45.71	17.99	73.48	0.00	0.0731	13.06	574.8	430.29	0.0743	608.7	10.956	20.05	12.69	1.44
	46.72	17.97	73.46	-0.00	0.0730	13.06	574.5	430.19	0.0745	611.6	11.009	20.15	12.77	1.44
	47.72	17.99	73.48	-0.00	0.0730	13.08	575.6	430.90	0.0737	594.8	10.706	19.59	12.34	1.44
	48.70	18.00	73.46	0.00	0.0732	13.08	575.5	430.98	0.0734	598.7	10.777	19.73	12.44	1.44
	49.70	17.99	73.48	0.00	0.0730	13.07	575.1	430.52	0.0741	603.1	10.856	19.87	12.55	1.44
	50.72	17.99	73.43	0.00	0.0729	13.04	573.6	429.72	0.0748	611.1	10.999	20.14	12.75	1.44
	51.70	17.99	73.48	0.00	0.0729	13.03	573.5	429.33	0.0748	614.4	11.060	20.24	12.84	1.44
	52.73	18.00	73.48	-0.00	0.0729	13.03	573.2	429.11	0.0747	613.1	11.036	20.20	12.81	1.44
	53.70	18.00	73.46	0.00	0.0727	12.98	571.0	427.67	0.0754	620.1	11.161	20.43	12.98	1.44
	54.71	18.00	73.46	-0.00	0.0726	12.96	570.2	427.01	0.0759	626.8	11.282	20.65	13.14	1.44
	55.72	18.00	73.48	-0.00	0.0724	12.92	568.6	425.70	0.0765	634.2	11.416	20.89	13.32	1.44
	56.71	18.00	73.48	0.00	0.0726	12.96	570.0	426.76	0.0760	629.6	11.333	20.74	13.21	1.44
	57.70	18.00	73.48	-0.00	0.0726	12.95	569.6	426.47	0.0761	630.1	11.343	20.76	13.22	1.44
	58.73	18.02	73.48	-0.00	0.0725	12.93	569.0	426.03	0.0761	631.1	11.361	20.79	13.25	1.44
	59.70	18.02	73.51	0.00	0.0724	12.90	567.7	424.86	0.0768	639.4	11.510	21.06	13.45	1.44
	60.70	18.02	73.48	0.00	0.0724	12.91	568.0	425.23	0.0768	638.7	11.497	21.04	13.43	1.44
	61.70	18.02	73.48	0.00	0.0724	12.91	567.8	425.14	0.0766	636.4	11.456	20.97	13.38	1.44
	62.70	18.00	73.48	0.00	0.0724	12.90	567.7	425.04	0.0768	638.9	11.500	21.05	13.44	1.44
	63.71	18.02	73.48	0.00	0.0724	12.91	567.9	425.15	0.0764	634.6	11.423	20.91	13.33	1.44
	64.72	18.04	73.51	-0.00	0.0723	12.90	567.8	424.97	0.0760	631.2	11.362	20.79	13.25	1.44
	65.71	18.04	73.46	0.00	0.0723	12.89	567.4	424.96	0.0764	633.3	11.399	20.87	13.30	1.44
	66.72	18.02	73.48	-0.00	0.0723	12.89	567.0	424.55	0.0761	629.4	11.329	20.73	13.21	1.44
	67.70	18.04	73.46	-0.00	0.0723	12.88	566.8	424.51	0.0759	629.4	11.330	20.74	13.21	1.44
	68.69	18.04	73.51	0.00	0.0726	12.94	569.5	426.28	0.0756	625.0	11.250	20.58	13.10	1.44
	69.72	18.05	73.48	0.00	0.0723	12.89	566.9	424.52	0.0766	636.6	11.459	20.97	13.38	1.44
	70.72	18.04	73.46	-0.00	0.0724	12.89	567.2	424.85	0.0770	641.1	11.540	21.13	13.49	1.44
	71.71	18.03	73.46	0.00	0.0723	12.89	567.2	424.84	0.0770	640.7	11.533	21.12	13.48	1.44
	72.71	18.07	73.46	-0.00	0.0722	12.88	566.8	424.56	0.0772	643.2	11.578	21.20	13.54	1.44
	73.73	18.04	73.46	-0.00	0.0722	12.87	566.4	424.21	0.0772	643.6	11.584	21.21	13.55	1.44
	74.71	18.03	73.48	-0.00	0.0722	12.86	565.8	423.61	0.0775	645.6	11.621	21.27	13.60	1.44
	75.71	18.05	73.46	0.00	0.0722	12.85	565.6	423.66	0.0776	645.8	11.624	21.28	13.60	1.44
	76.71	18.05	73.46	-0.00	0.0720	12.80	563.2	421.88	0.0784	659.5	11.871	21.74	13.93	1.44
	77.70	18.07	73.48	-0.00	0.0720	12.81	563.7	422.12	0.0783	655.5	11.799	21.60	13.83	1.44
	78.70	18.07	73.48	0.00	0.0719	12.79	562.9	421.50	0.0784	658.4	11.851	21.69	13.90	1.44
	79.72	18.07	73.46	-0.00	0.0719	12.78	562.4	421.32	0.0787	662.1	11.919	21.82	13.99	1.44
	80.70	18.05	73.46	-0.00	0.0717	12.74	560.4	419.75	0.0795	672.3	12.101	22.16	14.22	1.44
	81.70	18.07	73.43	0.00	0.0717	12.74	560.5	419.99	0.0793	670.3	12.066	22.10	14.18	1.44
	82.73	18.07	73.46	-0.00	0.0717	12.74	560.6	419.94	0.0793	669.3	12.047	22.06	14.15	1.44
	83.77	18.09	73.48	0.00	0.0716	12.74	560.5	419.75	0.0794	671.9	12.094	22.14	14.22	1.44
	84.72	18.07	73.48	-0.00	0.0716	12.71	559.3	418.85	0.0798	674.5	12.141	22.22	14.27	1.44
	85.78	18.07	73.48	-0.00	0.0716	12.70	558.9	418.54	0.0798	677.7	12.199	22.33	14.35	1.44
	86.70	18.08	73.48	0.00	0.0715	12.70	558.8	418.50	0.0799	679.2	12.225	22.38	14.38	1.44
	87.72	18.10	73.48	0.00	0.0715	12.70	558.9	418.54	0.0800	679.6	12.234	22.40	14.39	1.44
	88.72	18.08	73.46	-0.00	0.0715	12.69	558.5	418.42	0.0801	680.1	12.241	22.42	14.40	1.44
	89.72	18.08	73.48	-0.00	0.0715	12.69	558.5	418.26	0.0800	680.7	12.253	22.43	14.42	1.44
	90.70	18.07	73.46	0.00	0.0715	12.69	558.5	418.40	0.0798	677.0	12.186	22.31	14.33	1.44
	91.70	18.08	73.46	0.00	0.0715	12.70	558.9	418.71	0.0797	676.4	12.174	22.29	14.32	1.44
	92.71	18.08	73.48	0.00	0.0716	12.71	559.4	418.89	0.0798	677.3	12.192	22.32	14.34	1.44
	93.71	18.10	73.48	-0.00	0.0715	12.70	558.7	418.42	0.0801	680.0	12.241	22.41	14.40	1.44
	94.71	18.10	73.48	-0.00	0.0716	12.71	559.1	418.69	0.0801	679.8	12.236	22.40	14.40	1.44
	95.72	18.10	73.46	0.00	0.0715	12.69	558.4	418.31	0.0800	678.7	12.216	22.37	14.37	1.44
	96.70	18.10	73.48	0.00	0.0713	12.65	556.4	416.69	0.0805	686.4	12.354	22.62	14.55	1.44
	97.70	18.10	73.48	0.00	0.0713	12.65	556.7	416.94	0.0809	690.4	12.428	22.75	14.64	1.45
	98.70	18.12	73.46	0.00	0.0712	12.63	555.6	416.24	0.0808	690.6	12.432	22.77	14.64	1.44
	99.70	18.12	73.48	0.00	0.0711	12.61	554.7	415.42	0.0806	686.7	12.361	22.63	14.55	1.44
	100.70	18.12	73.48	0.00	0.0711	12.60	554.2	415.08	0.0804	683.6	12.306	22.53	14.49	1.44
	101.78	18.13	73.48	0.00	0.0711	12.59	553.9	414.88	0.0806	686.5	12.356	22.62	14.55	1.44
	102.69	18.13	73.48	0.00	0.0711	12.60	554.2	415.11	0.0808	691.0	12.438	22.77	14.65	1.44
	103.71	18.12	73.48	-0.00	0.0711	12.61	554.7	415.46	0.0806	687.3	12.372	22.65	14.57	1.45
	104.69	18.12	73.51	0.00	0.0710	12.59	553.8	414.60	0.0811	692.0	12.455	22.79	14.67	1.44
	105.78	18.12	73.51	0.00	0.0709	12.57	553.0	414.03	0.0813	696.1	12.529	22.93	14.76	1.44
	106.70	18.13	73.48	-0.00	0.0709	12.55	552.2	413.61	0.0815	699.9	12.599	23.07	14.85	1.44
	107.70	18.13	73.51	0.00	0.0710	12.56	552.5	413.71	0.0813	695.6	12.520	22.91	14.75	1.44
	108.69	18.12	73.48	0.00	0.0708	12.54	551.8	413.27	0.0812	694.3	12.498	22.88	14.73	1.45
	109.72	18.15	73.48	-0.00	0.0709	12.54	551.9	413.43	0.0813	696.2	12.532	22.95	14.77	1.44
	110.70	18.15	73.46	-0.00	0.0708	12.54	551.6	413.34	0.0815	698.6	12.575	23.03	14.82	1.44
	111.70	18.15	73.46	0.00	0.0708	12.52	550.9	412.80	0.0815	698.6	12.574	23.03	14.82	1.44
	112.69	18.15	73.48	0.00	0.0708	12.53	551.2	412.88	0.0815	697.8	12.561	23.00	14.81	1.44
	113.69	18.15	73.46	0.00	0.0708	12.52	550.7	412.67	0.0816	699.3	12.588	23.06	14.84	1.44
	114.71	18.15	73.43	-0.00	0.0707	12.50	550.1	412.34	0.0817	700.1	12.601	23.09	14.85	1.44
	115.69	18.15	73.48	0.00	0.0706	12.50	550.1	412.02	0.0816	700.2	12.603	23.08	14.86	1.44
	116.72	18.17	73.48	-0.00	0.0706	12.48	549.2	411.42	0.0817	700.1	12.602	23.08	14.86	1.44
	117.72	18.15	73.46	-0.00	0.0706	12.47	548.6	411.08	0.0819	702.6	12.647	23.16	14.91	1.44
	118.72	18.17	73.46	-0.00	0.0706	12.48	549.3	411.62	0.0820	703.8	12.668	23.21	14.94	1.44
	119.72	18.17	73.48	0.00	0.0706	12.47	548.8	411.09	0.0819	703.0	12.654	23.17	14.92	1.44
	120.70	18.18	73.48	0.00	0.0704	12.44	547.4	410.06	0.0823	708.2	12.747	23.34	15.04	1.45
	121.71	18.17	73.46	0.00	0.0704	12.44	547.2	410.01	0.0823	708.5	12.754	23.36	15.04	1.44
	122.71	18.17	73.46	0.00	0.0703	12.43	547.0	409.86	0.0824	708.6	12.755	23.36	15.04	1.44
