Jul 22 2015 at 9:26:26
Frequency: 1.00Hz.
CO2
Zero:  Value:0.95  Date:18 Mar 2005	 at 07:22:33	
Span:  Value:1.00  Date:18 Mar 2005	 at 07:25:09	
H2O
Zero:  Value:0.71  Date:18 Mar 2005	 at 07:52:31	
Span:  Value:0.99  Date:18 Mar 2005	 at 11:44:01	
	Relative Time	Temperature	Pressure	Aux Input	CO2 Absorptance	CO2 mmol/m3	CO2 mg/m3	CO2 umol/mol	H2O Absorptance	H2O mmol/m3	H2O g/m3	H2O mmol/mol	H2O(°C)	Cooler Voltage
	0.81	20.86	73.46	-0.00	0.0649	11.20	492.8	372.70	0.0875	777.5	13.995	25.87	16.64	1.53
	1.87	20.84	73.48	-0.00	0.0652	11.26	495.4	374.49	0.0872	772.5	13.906	25.70	16.54	1.53
	2.79	20.86	73.48	0.00	0.0653	11.28	496.4	375.25	0.0868	769.5	13.851	25.60	16.48	1.53
	3.81	20.86	73.48	-0.00	0.0655	11.34	498.8	377.07	0.0870	767.8	13.821	25.54	16.44	1.53
	4.79	20.91	73.48	0.00	0.0654	11.30	497.2	375.98	0.0877	779.9	14.038	25.95	16.69	1.53
	5.80	20.94	73.48	-0.00	0.0663	11.48	505.0	381.92	0.0853	754.7	13.585	25.11	16.18	1.53
	6.79	20.96	73.48	0.00	0.0665	11.67	513.5	388.34	0.0852	725.9	13.067	24.16	15.57	1.53
	7.79	20.97	73.46	-0.00	0.0661	11.48	505.2	382.18	0.0865	758.3	13.650	25.24	16.25	1.53
	8.80	20.97	73.48	-0.00	0.0659	11.41	501.9	379.56	0.0868	773.0	13.913	25.72	16.55	1.53
	9.78	20.97	73.48	0.00	0.0659	11.43	502.9	380.37	0.0869	767.9	13.822	25.55	16.45	1.53
	10.79	21.01	73.48	0.00	0.0654	11.29	496.7	375.72	0.0885	795.5	14.320	26.48	17.01	1.53
	11.79	20.99	73.48	-0.00	0.0652	11.27	496.0	375.13	0.0888	793.8	14.288	26.42	16.97	1.53
	12.81	20.97	73.51	0.00	0.0652	11.25	494.9	374.19	0.0887	798.2	14.368	26.55	17.06	1.53
	13.81	20.97	73.48	0.00	0.0653	11.29	496.6	375.56	0.0888	793.4	14.282	26.40	16.96	1.53
	14.80	20.96	73.48	0.00	0.0652	11.26	495.6	374.79	0.0891	798.5	14.372	26.57	17.06	1.53
	15.88	20.96	73.46	0.00	0.0653	11.28	496.5	375.63	0.0887	795.3	14.315	26.47	17.00	1.53
	16.82	20.96	73.48	0.00	0.0656	11.39	501.0	378.91	0.0877	773.5	13.922	25.74	16.56	1.53
	17.89	20.94	73.48	-0.00	0.0656	11.36	499.8	377.97	0.0881	784.3	14.118	26.10	16.78	1.53
	18.80	20.94	73.48	0.00	0.0656	11.34	499.1	377.45	0.0883	788.2	14.187	26.23	16.86	1.53
	19.81	20.94	73.48	0.00	0.0656	11.34	499.1	377.40	0.0883	790.3	14.225	26.30	16.90	1.53
	20.81	20.94	73.46	-0.00	0.0657	11.37	500.1	378.29	0.0874	778.5	14.013	25.91	16.66	1.53
	21.81	20.92	73.48	0.00	0.0658	11.39	501.2	378.98	0.0873	776.4	13.975	25.83	16.62	1.53
	22.79	20.94	73.51	0.00	0.0659	11.41	502.2	379.65	0.0867	769.0	13.841	25.58	16.47	1.53
	23.81	20.92	73.46	0.00	0.0658	11.41	501.9	379.69	0.0871	769.6	13.852	25.61	16.48	1.53
	24.80	20.92	73.51	0.00	0.0657	11.38	500.6	378.40	0.0881	786.8	14.162	26.17	16.83	1.53
	25.82	20.89	73.46	-0.00	0.0657	11.37	500.1	378.28	0.0880	786.1	14.149	26.16	16.81	1.53
	26.80	20.94	73.48	0.00	0.0658	11.38	500.6	378.56	0.0882	786.5	14.157	26.17	16.82	1.53
	27.80	20.92	73.48	0.00	0.0658	11.38	500.9	378.75	0.0883	788.2	14.188	26.22	16.86	1.53
	28.88	20.92	73.48	-0.00	0.0658	11.39	501.1	378.88	0.0882	786.1	14.149	26.15	16.81	1.53
	29.81	20.92	73.48	-0.00	0.0657	11.38	500.7	378.60	0.0880	785.3	14.136	26.13	16.80	1.53
	30.81	20.92	73.48	-0.00	0.0657	11.37	500.4	378.39	0.0886	791.2	14.241	26.32	16.92	1.53
	31.79	20.91	73.48	0.00	0.0656	11.36	499.9	378.00	0.0881	787.3	14.172	26.19	16.84	1.53
	32.79	20.92	73.48	0.00	0.0657	11.37	500.5	378.44	0.0883	787.7	14.179	26.21	16.85	1.53
	33.81	20.92	73.48	-0.00	0.0657	11.36	500.0	378.09	0.0880	783.8	14.108	26.08	16.77	1.53
	34.80	20.92	73.48	0.00	0.0657	11.37	500.2	378.24	0.0881	788.3	14.189	26.23	16.86	1.53
	35.80	20.92	73.46	-0.00	0.0656	11.36	499.8	378.06	0.0883	788.6	14.196	26.25	16.87	1.53
	36.78	20.94	73.48	0.00	0.0656	11.36	499.7	377.89	0.0886	793.6	14.285	26.41	16.97	1.53
	37.80	20.94	73.48	0.00	0.0657	11.37	500.2	378.23	0.0888	795.8	14.324	26.48	17.01	1.53
	38.78	20.94	73.48	0.00	0.0657	11.36	499.8	377.98	0.0887	793.9	14.291	26.42	16.97	1.53
	39.81	20.94	73.46	-0.00	0.0657	11.37	500.4	378.52	0.0887	794.0	14.293	26.43	16.97	1.53
	40.78	20.94	73.46	0.00	0.0657	11.37	500.5	378.60	0.0886	792.3	14.262	26.37	16.94	1.53
	41.81	20.94	73.48	-0.00	0.0657	11.37	500.5	378.46	0.0888	795.7	14.322	26.47	17.01	1.53
	42.79	20.94	73.48	0.00	0.0657	11.37	500.1	378.22	0.0888	794.1	14.293	26.42	16.98	1.53
	43.80	20.94	73.48	-0.00	0.0656	11.35	499.6	377.79	0.0886	793.9	14.290	26.41	16.97	1.53
	44.80	20.94	73.48	0.00	0.0656	11.35	499.5	377.76	0.0885	790.1	14.222	26.29	16.90	1.53
	45.82	20.94	73.46	-0.00	0.0656	11.36	499.7	378.03	0.0883	790.6	14.231	26.32	16.91	1.53
	46.80	20.94	73.48	0.00	0.0656	11.34	499.2	377.48	0.0887	793.1	14.275	26.39	16.96	1.53
	47.81	20.94	73.48	-0.00	0.0656	11.35	499.6	377.79	0.0889	794.4	14.300	26.43	16.98	1.53
	48.81	20.96	73.48	-0.00	0.0655	11.34	499.2	377.50	0.0892	798.1	14.366	26.56	17.06	1.53
	49.81	20.94	73.46	-0.00	0.0655	11.32	498.3	376.93	0.0889	797.0	14.345	26.53	17.03	1.53
	50.81	20.96	73.48	-0.00	0.0655	11.31	497.6	376.35	0.0890	796.8	14.342	26.51	17.03	1.53
	51.81	20.96	73.48	-0.00	0.0654	11.29	496.7	375.65	0.0891	797.2	14.349	26.53	17.04	1.53
	52.79	20.96	73.46	0.00	0.0655	11.32	498.0	376.75	0.0898	808.6	14.555	26.92	17.26	1.53
	53.80	20.96	73.48	0.00	0.0655	11.32	498.2	376.79	0.0897	807.5	14.534	26.87	17.24	1.53
	54.80	20.96	73.48	-0.00	0.0654	11.31	497.7	376.42	0.0898	810.0	14.580	26.95	17.29	1.53
	55.80	20.96	73.48	0.00	0.0653	11.29	496.8	375.70	0.0895	806.4	14.515	26.83	17.22	1.53
	56.80	20.97	73.46	0.00	0.0654	11.29	496.8	375.84	0.0891	799.2	14.385	26.60	17.08	1.53
	57.81	20.97	73.48	-0.00	0.0654	11.31	497.7	376.44	0.0893	802.0	14.436	26.69	17.13	1.53
	58.80	20.97	73.46	-0.00	0.0654	11.31	497.5	376.42	0.0897	807.1	14.527	26.87	17.23	1.53
	59.81	20.97	73.51	-0.00	0.0653	11.27	496.1	375.06	0.0900	811.6	14.608	27.00	17.32	1.53
	60.79	20.97	73.51	-0.00	0.0653	11.28	496.5	375.40	0.0897	807.4	14.533	26.86	17.24	1.53
	61.81	20.97	73.48	-0.00	0.0652	11.28	496.3	375.32	0.0899	808.9	14.561	26.92	17.27	1.53
	62.79	20.97	73.48	-0.00	0.0652	11.28	496.1	375.21	0.0898	809.9	14.578	26.95	17.29	1.53
	63.80	20.97	73.48	-0.00	0.0651	11.24	494.5	374.00	0.0900	811.1	14.600	26.99	17.31	1.53
	64.79	20.96	73.48	0.00	0.0652	11.25	495.1	374.42	0.0901	812.9	14.632	27.05	17.35	1.53
	65.79	20.96	73.48	0.00	0.0650	11.21	493.3	373.07	0.0901	814.9	14.668	27.11	17.38	1.53
	66.78	20.99	73.46	0.00	0.0650	11.22	493.5	373.40	0.0902	814.8	14.667	27.13	17.39	1.53
	67.80	21.03	73.48	-0.00	0.0651	11.22	493.9	373.59	0.0903	814.8	14.666	27.12	17.39	1.53
	68.80	20.99	73.48	-0.00	0.0650	11.22	493.7	373.44	0.0902	814.6	14.663	27.11	17.38	1.53
	69.80	20.99	73.48	-0.00	0.0651	11.23	494.0	373.62	0.0905	817.7	14.719	27.21	17.44	1.54
	70.78	20.99	73.48	0.00	0.0651	11.23	494.1	373.72	0.0907	822.2	14.800	27.36	17.53	1.53
	71.81	20.97	73.46	0.00	0.0651	11.23	494.1	373.80	0.0907	819.9	14.759	27.29	17.48	1.53
	72.79	21.01	73.48	0.00	0.0650	11.22	493.9	373.56	0.0904	816.3	14.694	27.17	17.42	1.53
	73.82	21.01	73.48	-0.00	0.0650	11.22	493.9	373.56	0.0907	820.3	14.765	27.30	17.49	1.53
	74.80	20.99	73.46	0.00	0.0650	11.22	493.7	373.52	0.0908	822.1	14.798	27.37	17.53	1.53
	75.80	21.01	73.48	0.00	0.0650	11.21	493.4	373.23	0.0909	823.8	14.829	27.42	17.56	1.54
	76.80	21.01	73.48	-0.00	0.0650	11.22	493.8	373.47	0.0908	821.2	14.782	27.33	17.51	1.53
	77.80	21.01	73.48	0.00	0.0650	11.22	493.6	373.31	0.0910	826.6	14.880	27.51	17.62	1.53
	78.80	21.02	73.48	0.00	0.0651	11.22	493.7	373.45	0.0910	825.6	14.861	27.48	17.60	1.53
	79.81	21.01	73.48	-0.00	0.0650	11.21	493.5	373.24	0.0906	819.8	14.756	27.28	17.48	1.53
	80.81	21.01	73.46	0.00	0.0650	11.22	493.5	373.44	0.0907	820.4	14.766	27.31	17.49	1.53
	81.79	20.99	73.48	0.00	0.0649	11.20	492.8	372.76	0.0911	828.4	14.911	27.57	17.65	1.54
	82.82	21.01	73.48	-0.00	0.0649	11.20	492.9	372.85	0.0906	821.2	14.782	27.33	17.51	1.53
	83.79	21.03	73.48	0.00	0.0649	11.20	492.7	372.73	0.0903	817.2	14.710	27.20	17.43	1.53
	84.80	21.02	73.51	0.00	0.0650	11.21	493.4	373.07	0.0910	825.0	14.850	27.45	17.58	1.53
	85.80	21.03	73.46	-0.00	0.0649	11.19	492.4	372.61	0.0912	830.7	14.953	27.66	17.69	1.53
	86.80	21.03	73.48	0.00	0.0648	11.16	491.2	371.59	0.0909	823.3	14.820	27.40	17.55	1.54
	87.80	21.04	73.46	0.00	0.0647	11.17	491.3	371.76	0.0906	821.7	14.790	27.36	17.52	1.54
	88.81	21.05	73.48	-0.00	0.0648	11.16	491.3	371.63	0.0911	825.8	14.864	27.49	17.60	1.53
	89.79	21.03	73.51	0.00	0.0647	11.15	490.8	371.14	0.0910	826.2	14.871	27.49	17.61	1.53
	90.81	21.04	73.46	-0.00	0.0647	11.15	490.8	371.42	0.0912	829.0	14.923	27.60	17.66	1.53
	91.79	21.04	73.48	0.00	0.0647	11.14	490.0	370.66	0.0916	835.9	15.045	27.82	17.79	1.53
	92.81	21.04	73.48	-0.00	0.0646	11.12	489.4	370.20	0.0914	831.2	14.961	27.67	17.70	1.54
	93.80	21.06	73.46	-0.00	0.0646	11.13	489.9	370.77	0.0915	833.9	15.010	27.77	17.76	1.54
	94.80	21.04	73.46	-0.00	0.0646	11.13	489.9	370.73	0.0919	834.6	15.022	27.79	17.77	1.53
	95.78	21.06	73.48	0.00	0.0647	11.13	489.8	370.51	0.0918	838.8	15.099	27.92	17.85	1.53
	96.80	21.04	73.48	-0.00	0.0646	11.13	489.8	370.55	0.0916	835.6	15.040	27.81	17.79	1.53
	97.80	21.04	73.48	-0.00	0.0646	11.13	489.6	370.36	0.0917	836.0	15.049	27.83	17.80	1.54
	98.83	21.06	73.48	-0.00	0.0645	11.11	489.0	369.92	0.0917	833.9	15.010	27.76	17.76	1.54
	99.81	21.06	73.48	-0.00	0.0647	11.14	490.4	370.97	0.0918	838.4	15.091	27.91	17.84	1.54
	100.82	21.06	73.46	-0.00	0.0646	11.14	490.1	370.88	0.0922	841.3	15.144	28.01	17.90	1.53
	101.79	21.04	73.48	0.00	0.0646	11.13	489.9	370.61	0.0920	839.8	15.116	27.95	17.87	1.54
	102.81	21.06	73.48	0.00	0.0646	11.13	489.6	370.39	0.0920	838.5	15.094	27.91	17.84	1.54
	103.80	21.08	73.46	-0.00	0.0646	11.13	489.9	370.79	0.0921	840.2	15.124	27.98	17.88	1.54
	104.82	21.07	73.48	-0.00	0.0645	11.11	488.8	369.79	0.0923	845.1	15.212	28.13	17.97	1.54
	105.80	21.10	73.46	0.00	0.0645	11.10	488.3	369.61	0.0919	838.6	15.094	27.93	17.85	1.54
	106.81	21.07	73.48	0.00	0.0644	11.10	488.3	369.43	0.0924	847.3	15.251	28.20	18.01	1.54
	107.80	21.07	73.48	0.00	0.0642	11.03	485.1	367.04	0.0920	835.9	15.046	27.83	17.80	1.54
	108.81	21.08	73.46	-0.00	0.0643	11.07	486.9	368.51	0.0926	847.6	15.256	28.22	18.02	1.54
	109.81	21.08	73.48	-0.00	0.0644	11.07	487.2	368.59	0.0925	846.0	15.227	28.16	17.99	1.54
	110.81	21.07	73.48	-0.00	0.0643	11.07	486.9	368.40	0.0928	851.4	15.325	28.34	18.09	1.54
	111.81	21.09	73.46	-0.00	0.0644	11.07	487.0	368.59	0.0927	850.8	15.315	28.33	18.08	1.54
	112.80	21.06	73.46	0.00	0.0642	11.06	486.5	368.19	0.0926	850.7	15.312	28.33	18.07	1.54
	113.80	21.09	73.46	-0.00	0.0641	11.02	484.9	366.99	0.0925	847.8	15.260	28.23	18.02	1.54
	114.80	21.09	73.46	0.00	0.0640	11.00	484.1	366.42	0.0928	850.1	15.302	28.31	18.06	1.53
	115.78	21.11	73.48	0.00	0.0641	11.01	484.6	366.66	0.0929	852.2	15.339	28.37	18.10	1.54
	116.81	21.09	73.46	-0.00	0.0641	11.03	485.2	367.25	0.0930	854.8	15.386	28.47	18.15	1.54
	117.80	21.09	73.46	0.00	0.0641	11.01	484.3	366.57	0.0932	856.7	15.420	28.53	18.19	1.54
	118.80	21.13	73.48	0.00	0.0639	10.96	482.3	364.95	0.0931	855.7	15.402	28.49	18.17	1.54
	119.78	21.13	73.48	0.00	0.0640	11.00	484.0	366.21	0.0933	857.1	15.428	28.54	18.20	1.54
	120.79	21.11	73.46	0.00	0.0641	11.01	484.3	366.60	0.0934	858.5	15.453	28.59	18.22	1.54
	121.79	21.11	73.48	0.00	0.0640	10.98	483.1	365.50	0.0936	862.0	15.516	28.70	18.29	1.54
