Jul 22 2015 at 9:17:29
Frequency: 1.00Hz.
CO2
Zero:  Value:0.95  Date:18 Mar 2005	 at 07:22:33	
Span:  Value:1.00  Date:18 Mar 2005	 at 07:25:09	
H2O
Zero:  Value:0.71  Date:18 Mar 2005	 at 07:52:31	
Span:  Value:0.99  Date:18 Mar 2005	 at 11:44:01	
	Relative Time	Temperature	Pressure	Aux Input	CO2 Absorptance	CO2 mmol/m3	CO2 mg/m3	CO2 umol/mol	H2O Absorptance	H2O mmol/m3	H2O g/m3	H2O mmol/mol	H2O(°C)	Cooler Voltage
	0.83	19.45	73.48	0.00	0.0697	12.26	539.4	405.87	0.0895	809.8	14.577	26.81	17.21	1.49
	1.92	19.41	73.46	-0.00	0.0703	12.38	544.5	409.79	0.0882	788.2	14.188	26.10	16.78	1.49
	2.82	19.43	73.48	0.00	0.0709	12.54	551.6	414.98	0.0860	763.4	13.742	25.27	16.28	1.49
	3.84	19.45	73.48	0.00	0.0710	12.58	553.6	416.51	0.0837	731.0	13.159	24.20	15.60	1.49
	4.82	19.41	73.48	0.00	0.0709	12.58	553.4	416.35	0.0834	725.3	13.055	24.01	15.47	1.50
	5.83	19.43	73.51	0.00	0.0709	12.58	553.7	416.44	0.0842	729.4	13.129	24.14	15.56	1.49
	6.83	19.45	73.51	-0.00	0.0706	12.51	550.6	414.08	0.0842	733.7	13.207	24.28	15.66	1.49
	7.83	19.45	73.49	0.00	0.0699	12.35	543.4	408.83	0.0887	779.2	14.025	25.79	16.60	1.49
	8.83	19.44	73.48	0.00	0.0702	12.35	543.3	408.74	0.0869	783.5	14.103	25.94	16.68	1.49
	9.84	19.45	73.48	-0.00	0.0704	12.40	545.6	410.51	0.0863	763.8	13.749	25.29	16.28	1.49
	10.84	19.45	73.46	0.00	0.0706	12.48	548.9	413.14	0.0846	742.4	13.363	24.58	15.84	1.50
	11.82	19.46	73.48	0.00	0.0707	12.54	551.6	415.00	0.0842	733.8	13.208	24.29	15.66	1.49
	12.84	19.46	73.48	-0.00	0.0705	12.47	548.5	412.73	0.0850	739.6	13.312	24.48	15.78	1.49
	13.84	19.46	73.48	-0.00	0.0705	12.46	548.4	412.65	0.0858	756.5	13.617	25.04	16.13	1.49
	14.82	19.46	73.48	0.00	0.0707	12.51	550.3	414.02	0.0848	741.1	13.339	24.53	15.81	1.49
	15.90	19.46	73.48	0.00	0.0707	12.50	550.0	413.83	0.0852	746.1	13.429	24.70	15.92	1.50
	16.82	19.46	73.48	0.00	0.0706	12.47	548.7	412.84	0.0851	748.7	13.476	24.79	15.97	1.50
	17.83	19.46	73.48	0.00	0.0708	12.53	551.2	414.69	0.0854	745.8	13.424	24.69	15.91	1.49
	18.83	19.46	73.48	-0.00	0.0707	12.50	550.0	413.81	0.0857	752.5	13.545	24.91	16.05	1.49
	19.83	19.48	73.48	0.00	0.0706	12.49	549.6	413.57	0.0863	759.8	13.677	25.16	16.20	1.49
	20.83	19.48	73.48	0.00	0.0707	12.51	550.4	414.16	0.0862	758.0	13.644	25.10	16.17	1.49
	21.84	19.50	73.48	-0.00	0.0707	12.51	550.5	414.24	0.0863	761.6	13.708	25.22	16.24	1.50
	22.84	19.48	73.48	-0.00	0.0704	12.42	546.5	411.21	0.0886	799.0	14.382	26.45	16.99	1.50
	23.84	19.49	73.48	-0.00	0.0707	12.51	550.3	414.12	0.0866	767.6	13.816	25.41	16.36	1.49
	24.84	19.48	73.48	0.00	0.0708	12.53	551.5	414.95	0.0860	756.5	13.617	25.05	16.14	1.50
	25.82	19.48	73.48	0.00	0.0706	12.49	549.5	413.44	0.0869	767.6	13.816	25.41	16.36	1.50
	26.83	19.50	73.51	-0.00	0.0707	12.50	549.8	413.61	0.0867	765.3	13.775	25.33	16.32	1.50
	27.83	19.50	73.46	-0.00	0.0705	12.48	549.2	413.41	0.0868	768.0	13.824	25.44	16.37	1.50
	28.83	19.48	73.48	0.00	0.0706	12.48	549.2	413.22	0.0872	771.5	13.887	25.54	16.44	1.50
	29.81	19.50	73.51	0.00	0.0705	12.44	547.4	411.80	0.0881	790.7	14.232	26.17	16.83	1.49
	30.83	19.51	73.48	0.00	0.0706	12.47	548.5	412.79	0.0886	789.0	14.202	26.12	16.80	1.50
	31.81	19.49	73.51	0.00	0.0704	12.44	547.3	411.69	0.0899	809.4	14.569	26.79	17.20	1.50
	32.84	19.50	73.48	-0.00	0.0706	12.46	548.2	412.50	0.0891	803.1	14.455	26.59	17.08	1.50
	33.84	19.49	73.46	0.00	0.0706	12.46	548.3	412.71	0.0878	782.1	14.078	25.91	16.66	1.50
	34.84	19.51	73.48	0.00	0.0703	12.42	546.7	411.40	0.0897	810.3	14.585	26.83	17.22	1.50
	35.83	19.51	73.46	-0.00	0.0705	12.45	547.7	412.29	0.0894	807.3	14.532	26.74	17.16	1.50
	36.83	19.51	73.48	0.00	0.0706	12.45	548.0	412.35	0.0890	801.1	14.420	26.53	17.04	1.50
	37.83	19.53	73.48	0.00	0.0706	12.49	549.7	413.67	0.0881	785.0	14.130	25.99	16.72	1.50
	38.84	19.51	73.48	0.00	0.0706	12.49	549.7	413.63	0.0888	789.6	14.212	26.14	16.81	1.50
	39.83	19.51	73.48	0.00	0.0707	12.51	550.3	414.14	0.0880	781.9	14.073	25.89	16.65	1.50
	40.83	19.51	73.48	0.00	0.0705	12.45	547.8	412.26	0.0899	810.4	14.587	26.83	17.22	1.50
	41.84	19.50	73.48	-0.00	0.0702	12.41	545.9	410.81	0.0918	835.7	15.042	27.67	17.71	1.50
	42.84	19.51	73.48	-0.00	0.0702	12.39	545.4	410.41	0.0917	841.9	15.154	27.88	17.82	1.50
	43.82	19.53	73.48	0.00	0.0706	12.46	548.4	412.74	0.0895	810.2	14.583	26.83	17.22	1.50
	44.85	19.55	73.48	-0.00	0.0706	12.47	548.6	412.92	0.0893	803.5	14.464	26.61	17.09	1.50
	45.82	19.53	73.48	0.00	0.0707	12.50	550.0	413.95	0.0890	802.1	14.438	26.56	17.06	1.50
	46.85	19.53	73.46	-0.00	0.0704	12.43	547.0	411.79	0.0901	813.6	14.645	26.95	17.28	1.50
	47.81	19.55	73.46	0.00	0.0703	12.42	546.4	411.35	0.0908	820.3	14.765	27.17	17.41	1.50
	48.83	19.55	73.48	0.00	0.0703	12.42	546.4	411.22	0.0908	825.8	14.864	27.35	17.52	1.50
	49.89	19.54	73.48	0.00	0.0705	12.44	547.5	412.03	0.0907	820.9	14.776	27.18	17.43	1.50
	50.83	19.55	73.48	0.00	0.0705	12.41	546.1	411.02	0.0901	820.8	14.774	27.18	17.42	1.50
	51.82	19.55	73.46	-0.00	0.0704	12.45	547.8	412.41	0.0906	817.7	14.719	27.09	17.36	1.50
	52.82	19.53	73.48	-0.00	0.0702	12.40	545.4	410.48	0.0919	835.4	15.038	27.66	17.70	1.50
	53.84	19.55	73.48	-0.00	0.0702	12.38	544.8	410.05	0.0930	841.1	15.140	27.85	17.81	1.50
	54.82	19.54	73.51	0.00	0.0701	12.39	545.0	410.07	0.0919	843.8	15.189	27.93	17.86	1.50
	55.83	19.53	73.46	-0.00	0.0702	12.40	545.6	410.75	0.0916	835.8	15.044	27.69	17.71	1.50
	56.83	19.56	73.46	-0.00	0.0702	12.39	545.2	410.50	0.0914	830.8	14.954	27.52	17.62	1.50
	57.83	19.58	73.48	0.00	0.0705	12.44	547.6	412.15	0.0904	816.9	14.704	27.05	17.35	1.50
	58.84	19.56	73.48	0.00	0.0704	12.44	547.2	411.83	0.0901	817.9	14.722	27.09	17.37	1.50
	59.83	19.58	73.48	0.00	0.0704	12.44	547.4	412.01	0.0901	814.7	14.665	26.98	17.31	1.50
	60.84	19.58	73.48	0.00	0.0704	12.45	547.7	412.29	0.0907	819.3	14.747	27.13	17.40	1.50
	61.84	19.58	73.43	-0.00	0.0705	12.46	548.1	412.83	0.0910	824.1	14.834	27.31	17.49	1.50
	62.84	19.58	73.46	0.00	0.0703	12.43	547.0	411.88	0.0915	830.6	14.950	27.52	17.61	1.50
	63.84	19.58	73.46	0.00	0.0706	12.48	549.1	413.42	0.0902	816.8	14.703	27.06	17.35	1.50
	64.83	19.56	73.48	0.00	0.0706	12.48	549.1	413.29	0.0902	817.9	14.722	27.09	17.37	1.50
	65.82	19.58	73.48	0.00	0.0706	12.48	549.1	413.35	0.0914	825.6	14.860	27.34	17.52	1.50
	66.83	19.60	73.48	0.00	0.0704	12.43	547.1	411.82	0.0920	843.0	15.174	27.92	17.85	1.50
	67.83	19.58	73.51	-0.00	0.0705	12.45	547.6	412.04	0.0920	840.7	15.133	27.83	17.81	1.50
	68.83	19.60	73.48	0.00	0.0706	12.49	549.4	413.58	0.0910	826.2	14.872	27.37	17.53	1.50
	69.83	19.60	73.48	-0.00	0.0702	12.41	546.1	411.07	0.0930	850.8	15.314	28.18	18.00	1.50
	70.84	19.60	73.48	0.00	0.0703	12.43	547.1	411.82	0.0925	844.1	15.194	27.96	17.87	1.50
	71.82	19.61	73.48	0.00	0.0702	12.37	544.2	409.65	0.0927	852.7	15.349	28.24	18.03	1.50
	72.84	19.61	73.48	-0.00	0.0703	12.41	546.1	411.09	0.0926	846.6	15.239	28.04	17.92	1.50
	73.82	19.61	73.46	0.00	0.0701	12.35	543.4	409.17	0.0935	860.3	15.485	28.50	18.17	1.51
	74.82	19.60	73.48	0.00	0.0699	12.32	542.1	408.10	0.0938	864.6	15.562	28.64	18.25	1.50
	75.83	19.63	73.51	-0.00	0.0699	12.33	542.4	408.20	0.0937	865.2	15.574	28.65	18.27	1.50
	76.83	19.60	73.46	-0.00	0.0703	12.40	545.5	410.78	0.0917	835.5	15.040	27.68	17.71	1.50
	77.81	19.63	73.48	0.00	0.0699	12.34	542.9	408.73	0.0933	855.1	15.391	28.32	18.08	1.50
	78.83	19.61	73.46	-0.00	0.0698	12.31	541.8	407.99	0.0931	857.1	15.428	28.40	18.11	1.50
	79.83	19.63	73.48	-0.00	0.0701	12.35	543.3	409.03	0.0925	849.7	15.295	28.15	17.98	1.51
	80.82	19.61	73.48	0.00	0.0701	12.36	544.0	409.55	0.0922	841.6	15.149	27.88	17.82	1.51
	81.82	19.59	73.48	-0.00	0.0701	12.35	543.4	409.04	0.0922	847.9	15.261	28.08	17.94	1.50
	82.84	19.61	73.46	0.00	0.0700	12.36	543.8	409.49	0.0924	844.5	15.201	27.98	17.88	1.50
	83.82	19.63	73.51	0.00	0.0701	12.34	542.9	408.55	0.0928	855.2	15.393	28.32	18.08	1.50
	84.83	19.65	73.48	0.00	0.0703	12.39	545.3	410.58	0.0911	830.4	14.947	27.51	17.61	1.50
	85.83	19.63	73.48	0.00	0.0704	12.42	546.5	411.43	0.0912	827.5	14.895	27.41	17.56	1.51
	86.83	19.63	73.48	0.00	0.0700	12.39	545.0	410.28	0.0933	842.1	15.157	27.89	17.83	1.51
	87.83	19.63	73.48	0.00	0.0701	12.36	543.9	409.47	0.0929	850.0	15.300	28.16	17.98	1.51
	88.83	19.65	73.48	0.00	0.0702	12.38	544.8	410.17	0.0922	847.9	15.263	28.09	17.95	1.51
	89.83	19.64	73.48	0.00	0.0701	12.40	545.7	410.83	0.0927	844.1	15.194	27.96	17.87	1.51
	90.82	19.65	73.48	0.00	0.0699	12.32	541.9	407.98	0.0945	875.4	15.756	29.00	18.45	1.51
	91.84	19.64	73.48	-0.00	0.0702	12.39	545.0	410.35	0.0927	853.2	15.358	28.26	18.04	1.51
	92.84	19.65	73.48	-0.00	0.0702	12.40	545.7	410.83	0.0924	842.0	15.156	27.89	17.83	1.51
	93.83	19.66	73.48	-0.00	0.0701	12.35	543.5	409.22	0.0925	848.7	15.277	28.12	17.96	1.51
	94.83	19.66	73.48	0.00	0.0701	12.36	543.9	409.51	0.0930	853.8	15.368	28.28	18.05	1.51
	95.82	19.66	73.48	0.00	0.0700	12.33	542.5	408.48	0.0939	868.0	15.624	28.76	18.32	1.51
	96.83	19.66	73.48	0.00	0.0699	12.33	542.4	408.42	0.0948	869.3	15.648	28.80	18.34	1.51
	97.81	19.66	73.46	0.00	0.0698	12.28	540.3	406.95	0.0944	880.0	15.840	29.16	18.54	1.51
	98.84	19.66	73.48	-0.00	0.0697	12.31	541.5	407.70	0.0945	872.3	15.702	28.90	18.40	1.51
	99.83	19.68	73.48	0.00	0.0696	12.24	538.6	405.57	0.0949	885.8	15.944	29.35	18.64	1.51
	100.84	19.68	73.46	-0.00	0.0695	12.21	537.4	404.82	0.0948	882.6	15.887	29.25	18.59	1.51
	101.84	19.68	73.43	-0.00	0.0694	12.23	538.1	405.46	0.0945	875.9	15.765	29.04	18.46	1.51
	102.82	19.68	73.48	0.00	0.0694	12.19	536.6	404.00	0.0936	877.8	15.800	29.08	18.50	1.51
	103.83	19.68	73.48	0.00	0.0696	12.23	538.3	405.34	0.0920	850.4	15.307	28.17	17.99	1.51
	104.82	19.68	73.48	0.00	0.0699	12.32	541.9	408.02	0.0920	837.9	15.082	27.76	17.76	1.51
	105.83	19.69	73.48	0.00	0.0696	12.27	539.9	406.51	0.0932	854.9	15.389	28.33	18.08	1.51
	106.83	19.70	73.48	-0.00	0.0698	12.28	540.3	406.88	0.0925	846.6	15.238	28.05	17.92	1.51
	107.84	19.69	73.48	-0.00	0.0693	12.22	537.5	404.75	0.0948	876.1	15.770	29.03	18.47	1.51
	108.83	19.70	73.48	-0.00	0.0694	12.20	536.7	404.14	0.0944	876.8	15.783	29.05	18.48	1.51
	109.84	19.68	73.46	-0.00	0.0697	12.25	539.1	406.08	0.0931	861.9	15.514	28.56	18.21	1.51
	110.89	19.71	73.48	0.00	0.0699	12.31	541.7	407.91	0.0920	839.8	15.116	27.83	17.80	1.51
	111.84	19.71	73.48	-0.00	0.0700	12.33	542.4	408.45	0.0925	846.4	15.235	28.04	17.92	1.51
	112.82	19.71	73.46	0.00	0.0698	12.30	541.2	407.71	0.0930	854.6	15.383	28.33	18.07	1.51
	113.82	19.71	73.48	0.00	0.0698	12.30	541.3	407.63	0.0932	858.3	15.450	28.44	18.14	1.51
	114.83	19.71	73.48	-0.00	0.0701	12.34	543.0	408.89	0.0927	847.5	15.255	28.08	17.94	1.51
	115.81	19.71	73.48	0.00	0.0697	12.28	540.5	406.99	0.0942	869.2	15.645	28.80	18.34	1.51
	116.81	19.71	73.48	0.00	0.0700	12.32	541.9	408.07	0.0935	865.0	15.570	28.66	18.27	1.51
	117.81	19.75	73.48	0.00	0.0699	12.33	542.7	408.72	0.0936	858.4	15.452	28.45	18.15	1.51
	118.81	19.73	73.48	-0.00	0.0697	12.29	540.8	407.27	0.0943	869.9	15.658	28.83	18.36	1.51
	119.90	19.73	73.48	0.00	0.0699	12.32	541.9	408.11	0.0939	867.9	15.622	28.76	18.32	1.51
	120.82	19.73	73.48	0.00	0.0698	12.28	540.5	407.02	0.0947	883.7	15.906	29.28	18.61	1.51
