Jul 23 2015 at 9:28:47
Frequency: 1.00Hz.
CO2
Zero:  Value:0.95  Date:18 Mar 2005	 at 07:22:33	
Span:  Value:1.00  Date:18 Mar 2005	 at 07:25:09	
H2O
Zero:  Value:0.71  Date:18 Mar 2005	 at 07:52:31	
Span:  Value:0.99  Date:18 Mar 2005	 at 11:44:01	
	Relative Time	Temperature	Pressure	Aux Input	CO2 Absorptance	CO2 mmol/m3	CO2 mg/m3	CO2 umol/mol	H2O Absorptance	H2O mmol/m3	H2O g/m3	H2O mmol/mol	H2O(°C)	Cooler Voltage
	0.73	22.19	73.69	-0.00	0.0677	11.81	519.8	393.64	0.0767	634.5	11.421	21.14	13.55	1.61
	1.73	22.19	73.74	-0.00	0.0678	11.83	520.4	393.82	0.0775	645.5	11.619	21.49	13.81	1.61
	2.71	22.20	73.74	0.00	0.0678	11.84	520.9	394.20	0.0774	644.6	11.603	21.46	13.79	1.61
	3.73	22.18	73.72	-0.00	0.0678	11.84	520.9	394.32	0.0769	637.7	11.479	21.24	13.63	1.61
	4.73	22.19	73.72	0.00	0.0678	11.85	521.4	394.71	0.0769	641.1	11.539	21.35	13.71	1.61
	5.74	22.20	73.72	0.00	0.0679	11.87	522.1	395.25	0.0773	644.4	11.599	21.47	13.79	1.61
	6.72	22.20	73.72	0.00	0.0679	11.85	521.3	394.62	0.0766	634.8	11.427	21.15	13.56	1.61
	7.74	22.20	73.72	0.00	0.0681	11.90	523.7	396.44	0.0752	617.9	11.121	20.58	13.14	1.61
	8.74	22.22	73.72	-0.00	0.0682	11.91	524.2	396.88	0.0750	616.0	11.089	20.52	13.10	1.61
	9.73	22.22	73.72	0.00	0.0683	11.92	524.5	397.09	0.0745	613.8	11.048	20.45	13.04	1.61
	10.73	22.20	73.75	-0.00	0.0681	11.93	524.9	397.22	0.0738	605.2	10.894	20.15	12.83	1.61
	11.73	22.20	73.72	0.00	0.0680	11.89	523.2	396.10	0.0742	605.8	10.905	20.18	12.84	1.61
	12.73	22.22	73.72	0.00	0.0681	11.90	523.6	396.38	0.0742	600.2	10.804	19.99	12.70	1.61
	13.74	22.22	73.72	-0.00	0.0680	11.87	522.4	395.52	0.0741	611.3	11.004	20.36	12.98	1.61
	14.73	22.24	73.74	0.00	0.0682	11.91	524.2	396.74	0.0740	602.6	10.848	20.07	12.76	1.61
	15.72	22.22	73.72	0.00	0.0684	11.95	526.0	398.22	0.0741	606.8	10.923	20.22	12.87	1.61
	16.74	22.22	73.72	-0.00	0.0679	11.87	522.2	395.33	0.0754	619.6	11.152	20.64	13.19	1.61
	17.74	22.22	73.72	0.00	0.0683	11.96	526.3	398.43	0.0744	606.9	10.924	20.22	12.87	1.61
	18.72	22.24	73.72	0.00	0.0686	12.02	528.8	400.39	0.0738	598.1	10.765	19.92	12.65	1.61
	19.81	22.26	73.72	-0.00	0.0683	11.94	525.5	397.93	0.0737	601.2	10.822	20.03	12.73	1.62
	20.73	22.26	73.72	-0.00	0.0681	11.91	524.1	396.86	0.0743	605.5	10.899	20.17	12.84	1.61
	21.73	22.24	73.72	0.00	0.0682	11.90	523.4	396.29	0.0743	607.9	10.941	20.25	12.89	1.61
	22.71	22.24	73.72	0.00	0.0682	11.90	523.4	396.30	0.0743	609.3	10.967	20.30	12.93	1.61
	23.73	22.23	73.72	0.00	0.0684	11.98	526.9	398.94	0.0739	603.2	10.857	20.09	12.78	1.61
	24.79	22.22	73.72	0.00	0.0683	11.94	525.4	397.79	0.0747	614.5	11.060	20.47	13.06	1.61
	25.73	22.27	73.74	0.00	0.0683	11.95	525.8	397.98	0.0741	605.2	10.894	20.16	12.83	1.62
	26.82	22.29	73.69	-0.00	0.0685	12.00	527.9	399.93	0.0742	604.4	10.879	20.15	12.81	1.61
	27.72	22.31	73.72	0.00	0.0689	12.08	531.6	402.62	0.0738	602.4	10.844	20.07	12.76	1.61
	28.72	22.29	73.72	0.00	0.0689	12.12	533.3	403.84	0.0740	602.3	10.842	20.07	12.76	1.61
	29.72	22.29	73.72	0.00	0.0688	12.06	530.5	401.72	0.0744	607.6	10.937	20.25	12.89	1.61
	30.72	22.31	73.72	0.00	0.0688	12.03	529.5	401.02	0.0743	610.0	10.981	20.33	12.95	1.62
	31.73	22.31	73.72	-0.00	0.0687	12.01	528.3	400.10	0.0745	612.2	11.020	20.40	13.01	1.62
	32.71	22.30	73.72	0.00	0.0691	12.07	531.2	402.26	0.0745	610.4	10.988	20.34	12.96	1.61
	33.73	22.29	73.69	0.00	0.0695	12.21	537.4	407.14	0.0743	608.4	10.951	20.28	12.91	1.61
	34.74	22.32	73.74	0.00	0.0690	12.10	532.5	403.14	0.0748	611.7	11.011	20.38	13.00	1.61
	35.74	22.31	73.72	0.00	0.0691	12.12	533.1	403.70	0.0747	611.0	10.997	20.36	12.98	1.61
	36.72	22.31	73.72	0.00	0.0694	12.22	537.8	407.32	0.0743	607.4	10.933	20.24	12.89	1.62
	37.75	22.31	73.74	-0.00	0.0691	12.16	535.0	405.04	0.0744	607.6	10.936	20.24	12.89	1.62
	38.73	22.30	73.72	0.00	0.0688	12.04	529.6	401.07	0.0752	617.1	11.108	20.56	13.13	1.61
	39.75	22.30	73.69	-0.00	0.0699	12.29	540.6	409.57	0.0745	611.0	10.998	20.37	12.98	1.62
	40.73	22.31	73.72	-0.00	0.0693	12.25	539.0	408.17	0.0747	611.5	11.007	20.38	12.99	1.61
	41.73	22.32	73.72	0.00	0.0692	12.17	535.6	405.66	0.0750	613.5	11.042	20.44	13.04	1.61
	42.73	22.32	73.69	0.00	0.0692	12.13	533.6	404.25	0.0747	612.6	11.027	20.42	13.02	1.62
	43.73	22.32	73.72	0.00	0.0692	12.12	533.1	403.73	0.0748	614.1	11.054	20.46	13.06	1.62
	44.74	22.32	73.72	0.00	0.0697	12.30	541.3	409.99	0.0748	612.2	11.020	20.40	13.01	1.62
	45.74	22.28	73.72	-0.00	0.0694	12.24	538.5	407.81	0.0743	610.4	10.987	20.34	12.96	1.62
	46.72	22.32	73.72	0.00	0.0693	12.20	536.9	406.62	0.0741	607.2	10.929	20.23	12.88	1.62
	47.74	22.32	73.72	0.00	0.0692	12.15	534.5	404.78	0.0741	605.6	10.901	20.18	12.84	1.62
	48.73	22.32	73.72	-0.00	0.0696	12.23	538.1	407.55	0.0744	609.6	10.973	20.31	12.94	1.62
	49.73	22.32	73.74	-0.00	0.0696	12.28	540.1	408.91	0.0745	611.3	11.003	20.36	12.99	1.62
	50.72	22.32	73.72	0.00	0.0696	12.27	539.9	408.86	0.0746	611.9	11.014	20.39	13.00	1.62
	51.75	22.34	73.69	-0.00	0.0698	12.29	540.9	409.84	0.0745	610.0	10.980	20.34	12.95	1.62
	52.71	22.34	73.69	0.00	0.0699	12.29	540.9	409.85	0.0745	608.3	10.950	20.28	12.91	1.62
	53.73	22.34	73.80	0.00	0.0699	12.31	541.8	409.96	0.0745	611.0	10.998	20.34	12.98	1.62
	54.73	22.34	73.69	-0.00	0.0697	12.28	540.1	409.25	0.0744	608.5	10.954	20.29	12.92	1.62
	55.72	22.34	73.72	0.00	0.0697	12.27	540.0	408.98	0.0742	607.8	10.941	20.26	12.90	1.62
	56.72	22.34	73.72	0.00	0.0695	12.25	538.9	408.17	0.0743	608.9	10.959	20.29	12.93	1.62
	57.74	22.34	73.72	-0.00	0.0697	12.25	539.2	408.38	0.0742	606.2	10.911	20.20	12.86	1.62
	58.72	22.34	73.72	0.00	0.0696	12.25	538.8	408.09	0.0741	605.3	10.895	20.17	12.84	1.62
	59.72	22.36	73.72	0.00	0.0695	12.25	538.8	408.12	0.0741	606.3	10.913	20.21	12.86	1.62
	60.73	22.36	73.72	-0.00	0.0696	12.24	538.6	407.98	0.0741	606.0	10.908	20.20	12.85	1.62
	61.71	22.36	73.72	0.00	0.0698	12.27	539.8	408.88	0.0745	608.9	10.959	20.29	12.93	1.62
	62.73	22.36	73.72	-0.00	0.0697	12.27	540.1	409.07	0.0744	609.3	10.967	20.31	12.94	1.62
	63.73	22.36	73.72	-0.00	0.0697	12.28	540.3	409.26	0.0744	609.3	10.968	20.31	12.94	1.62
	64.72	22.36	73.72	0.00	0.0698	12.30	541.2	409.90	0.0747	611.7	11.011	20.39	13.00	1.62
	65.74	22.37	73.74	0.00	0.0696	12.28	540.4	409.18	0.0745	611.2	11.002	20.36	12.99	1.62
	66.74	22.38	73.72	-0.00	0.0696	12.24	538.7	408.09	0.0743	607.7	10.938	20.25	12.90	1.62
	67.74	22.38	73.72	0.00	0.0697	12.26	539.4	408.62	0.0745	609.8	10.977	20.32	12.95	1.62
	68.73	22.39	73.72	0.00	0.0697	12.28	540.1	409.17	0.0746	611.8	11.012	20.39	13.00	1.62
	69.75	22.38	73.74	-0.00	0.0695	12.23	538.3	407.62	0.0745	610.1	10.982	20.33	12.96	1.62
	70.73	22.37	73.74	0.00	0.0698	12.28	540.5	409.30	0.0747	611.8	11.012	20.38	13.00	1.62
	71.73	22.39	73.72	0.00	0.0698	12.31	541.5	410.23	0.0746	613.0	11.034	20.43	13.03	1.62
	72.74	22.39	73.72	-0.00	0.0696	12.25	539.0	408.30	0.0744	608.1	10.945	20.27	12.91	1.62
	73.74	22.39	73.72	-0.00	0.0696	12.25	539.2	408.46	0.0743	608.7	10.957	20.29	12.92	1.62
	74.74	22.41	73.72	-0.00	0.0696	12.26	539.6	408.76	0.0744	609.5	10.971	20.32	12.94	1.62
	75.72	22.39	73.72	0.00	0.0695	12.22	537.5	407.14	0.0742	604.9	10.888	20.16	12.83	1.62
	76.74	22.41	73.72	-0.00	0.0701	12.36	543.8	411.96	0.0753	618.7	11.137	20.62	13.17	1.62
	77.74	22.41	73.72	-0.00	0.0700	12.34	543.1	411.45	0.0751	617.7	11.118	20.59	13.15	1.62
	78.72	22.41	73.74	-0.00	0.0698	12.31	541.8	410.33	0.0749	616.5	11.097	20.54	13.12	1.62
	79.81	22.43	73.74	-0.00	0.0699	12.32	542.2	410.62	0.0750	617.4	11.113	20.57	13.14	1.62
	80.72	22.39	73.74	0.00	0.0698	12.30	541.1	409.76	0.0749	614.5	11.061	20.47	13.07	1.62
	81.73	22.41	73.72	0.00	0.0699	12.30	541.3	410.07	0.0749	614.5	11.061	20.48	13.07	1.62
	82.73	22.42	73.72	-0.00	0.0697	12.29	540.9	409.82	0.0748	614.3	11.057	20.48	13.06	1.62
	83.73	22.43	73.72	0.00	0.0699	12.30	541.1	409.98	0.0749	613.9	11.049	20.46	13.05	1.62
	84.72	22.43	73.72	0.00	0.0698	12.30	541.1	409.97	0.0747	612.8	11.030	20.43	13.03	1.62
	85.72	22.43	73.72	0.00	0.0699	12.31	541.7	410.37	0.0750	614.8	11.067	20.50	13.08	1.62
	86.72	22.43	73.72	0.00	0.0696	12.27	540.0	409.11	0.0745	611.3	11.004	20.38	12.99	1.62
	87.73	22.44	73.74	-0.00	0.0698	12.28	540.3	409.26	0.0747	611.4	11.005	20.37	12.99	1.62
	88.81	22.44	73.72	-0.00	0.0699	12.32	541.9	410.57	0.0750	615.0	11.070	20.50	13.08	1.62
	89.72	22.42	73.72	0.00	0.0700	12.32	542.1	410.73	0.0751	615.8	11.084	20.53	13.10	1.62
	90.73	22.44	73.72	-0.00	0.0700	12.34	542.9	411.37	0.0751	618.1	11.126	20.61	13.16	1.62
	91.73	22.46	73.72	-0.00	0.0701	12.36	543.8	412.01	0.0753	620.3	11.165	20.68	13.22	1.62
	92.73	22.44	73.72	0.00	0.0698	12.30	541.2	410.06	0.0746	614.1	11.054	20.47	13.06	1.62
	93.74	22.46	73.75	0.00	0.0698	12.28	540.4	409.34	0.0747	611.1	11.000	20.37	12.99	1.62
	94.74	22.46	73.72	-0.00	0.0697	12.24	538.6	408.13	0.0744	606.5	10.917	20.22	12.87	1.62
	95.74	22.46	73.72	0.00	0.0698	12.27	540.0	409.15	0.0745	610.3	10.986	20.35	12.97	1.62
	96.72	22.48	73.72	0.00	0.0695	12.22	537.5	407.31	0.0740	603.2	10.858	20.11	12.79	1.62
	97.75	22.46	73.72	-0.00	0.0695	12.23	538.0	407.65	0.0742	605.7	10.903	20.19	12.85	1.62
	98.72	22.48	73.72	0.00	0.0693	12.21	537.2	407.09	0.0739	605.8	10.905	20.20	12.86	1.62
	99.75	22.48	73.72	-0.00	0.0696	12.22	537.8	407.50	0.0743	606.2	10.912	20.21	12.87	1.62
	100.73	22.48	73.72	-0.00	0.0697	12.29	540.8	409.78	0.0748	614.0	11.051	20.47	13.06	1.62
	101.74	22.48	73.72	-0.00	0.0696	12.21	537.2	407.10	0.0744	605.4	10.896	20.18	12.84	1.62
	102.73	22.48	73.72	0.00	0.0697	12.28	540.3	409.43	0.0748	613.9	11.049	20.47	13.06	1.62
	103.74	22.48	73.72	-0.00	0.0695	12.22	537.9	407.59	0.0743	609.2	10.965	20.31	12.94	1.62
	104.72	22.49	73.72	0.00	0.0698	12.27	540.0	409.21	0.0750	614.2	11.056	20.48	13.07	1.62
	105.74	22.50	73.72	-0.00	0.0697	12.26	539.6	408.93	0.0749	614.3	11.058	20.48	13.07	1.62
	106.72	22.50	73.74	-0.00	0.0696	12.25	539.1	408.37	0.0746	612.4	11.022	20.41	13.02	1.63
	107.73	22.50	73.72	0.00	0.0696	12.26	539.4	408.74	0.0747	613.9	11.050	20.47	13.06	1.63
	108.72	22.51	73.72	0.00	0.0699	12.29	540.8	409.85	0.0752	617.4	11.113	20.59	13.15	1.62
	109.73	22.53	73.72	0.00	0.0694	12.20	536.7	406.75	0.0743	606.4	10.916	20.22	12.87	1.62
	110.71	22.51	73.72	0.00	0.0693	12.18	535.9	406.09	0.0741	604.4	10.879	20.15	12.82	1.62
	111.73	22.51	73.72	0.00	0.0698	12.27	539.9	409.18	0.0751	615.5	11.079	20.52	13.10	1.63
	112.71	22.51	73.72	0.00	0.0694	12.19	536.4	406.53	0.0740	604.2	10.875	20.15	12.82	1.63
	113.74	22.53	73.72	-0.00	0.0693	12.15	534.7	405.21	0.0739	600.7	10.812	20.03	12.73	1.63
	114.71	22.58	73.72	0.00	0.0693	12.18	536.0	406.29	0.0742	606.1	10.910	20.21	12.87	1.62
	115.72	22.60	73.72	0.00	0.0699	12.31	541.6	410.58	0.0753	620.3	11.166	20.69	13.22	1.63
	116.72	22.60	73.72	0.00	0.0699	12.31	541.7	410.66	0.0753	619.1	11.144	20.65	13.19	1.62
	117.73	22.65	73.72	0.00	0.0694	12.23	538.3	408.15	0.0743	611.7	11.011	20.41	13.01	1.63
	118.75	22.69	73.72	-0.00	0.0696	12.26	539.6	409.15	0.0749	616.7	11.100	20.57	13.14	1.63
	119.73	22.70	73.72	-0.00	0.0693	12.22	537.7	407.73	0.0739	610.0	10.980	20.35	12.97	1.63
	120.75	22.70	73.72	-0.00	0.0693	12.18	536.1	406.54	0.0740	604.2	10.876	20.16	12.83	1.62
	121.73	22.74	73.74	0.00	0.0696	12.22	537.7	407.63	0.0746	608.9	10.959	20.31	12.95	1.63
