Jul 23 2015 at 9:10:34
Frequency: 1.00Hz.
CO2
Zero:  Value:0.95  Date:18 Mar 2005	 at 07:22:33	
Span:  Value:1.00  Date:18 Mar 2005	 at 07:25:09	
H2O
Zero:  Value:0.71  Date:18 Mar 2005	 at 07:52:31	
Span:  Value:0.99  Date:18 Mar 2005	 at 11:44:01	
	Relative Time	Temperature	Pressure	Aux Input	CO2 Absorptance	CO2 mmol/m3	CO2 mg/m3	CO2 umol/mol	H2O Absorptance	H2O mmol/m3	H2O g/m3	H2O mmol/mol	H2O(°C)	Cooler Voltage
	0.08	18.20	73.72	0.00	0.0682	11.93	525.0	392.07	0.0789	664.1	11.954	21.82	14.04	1.52
	1.08	18.22	73.72	-0.00	0.0681	11.89	523.4	390.86	0.0793	667.6	12.017	21.94	14.12	1.52
	2.08	18.20	73.72	-0.00	0.0680	11.90	523.4	390.86	0.0796	673.3	12.119	22.12	14.25	1.52
	3.07	18.22	73.74	0.00	0.0679	11.86	522.0	389.67	0.0791	668.3	12.029	21.95	14.14	1.51
	4.07	18.22	73.67	0.00	0.0680	11.87	522.3	390.32	0.0787	661.8	11.913	21.76	13.99	1.51
	5.07	18.20	73.72	0.00	0.0679	11.86	522.0	389.85	0.0784	659.3	11.867	21.66	13.93	1.51
	6.07	18.20	73.75	0.00	0.0679	11.85	521.6	389.35	0.0783	656.8	11.823	21.58	13.87	1.52
	7.07	18.23	73.69	0.00	0.0678	11.85	521.4	389.57	0.0788	663.5	11.943	21.81	14.03	1.52
	8.14	18.23	73.72	0.00	0.0677	11.82	520.2	388.54	0.0785	658.1	11.846	21.63	13.90	1.52
	9.06	18.22	73.72	0.00	0.0675	11.77	517.7	386.61	0.0807	683.8	12.308	22.47	14.49	1.51
	10.08	18.23	73.74	-0.00	0.0674	11.74	516.6	385.73	0.0810	690.4	12.428	22.68	14.64	1.52
	11.06	18.22	73.74	0.00	0.0675	11.76	517.3	386.20	0.0809	689.3	12.407	22.64	14.62	1.52
	12.07	18.23	73.72	0.00	0.0674	11.74	516.5	385.78	0.0808	687.7	12.379	22.60	14.58	1.52
	13.06	18.22	73.72	0.00	0.0676	11.76	517.6	386.57	0.0805	685.5	12.339	22.53	14.53	1.52
	14.07	18.22	73.72	0.00	0.0677	11.79	518.8	387.47	0.0798	675.7	12.162	22.20	14.31	1.52
	15.07	18.22	73.72	-0.00	0.0678	11.82	520.2	388.52	0.0786	659.1	11.863	21.66	13.93	1.52
	16.08	18.22	73.69	-0.00	0.0678	11.82	520.2	388.62	0.0781	654.6	11.783	21.52	13.82	1.52
	17.07	18.23	73.72	0.00	0.0679	11.86	522.0	389.85	0.0772	645.8	11.625	21.22	13.61	1.52
	18.07	18.23	73.72	0.00	0.0678	11.84	521.0	389.14	0.0772	641.8	11.552	21.09	13.52	1.52
	19.09	18.20	73.72	-0.00	0.0678	11.83	520.4	388.63	0.0772	643.7	11.587	21.15	13.56	1.52
	20.09	18.23	73.72	-0.00	0.0680	11.86	521.8	389.72	0.0771	641.3	11.543	21.07	13.51	1.52
	21.08	18.23	73.77	0.00	0.0680	11.89	523.1	390.44	0.0769	640.4	11.527	21.03	13.48	1.52
	22.09	18.22	73.69	-0.00	0.0681	11.90	523.4	391.02	0.0766	635.6	11.441	20.89	13.37	1.52
	23.09	18.22	73.69	-0.00	0.0681	11.90	523.7	391.23	0.0764	633.3	11.400	20.82	13.31	1.52
	24.10	18.23	73.72	-0.00	0.0681	11.90	523.8	391.21	0.0758	626.2	11.271	20.58	13.14	1.52
	25.09	18.25	73.69	-0.00	0.0682	11.92	524.6	391.96	0.0755	622.2	11.200	20.46	13.04	1.52
	26.08	18.25	73.72	0.00	0.0682	11.93	524.9	392.09	0.0755	622.6	11.206	20.46	13.05	1.52
	27.07	18.25	73.69	0.00	0.0683	11.94	525.1	392.38	0.0753	620.3	11.166	20.39	13.00	1.52
	28.10	18.25	73.74	-0.00	0.0683	11.94	525.4	392.27	0.0755	620.0	11.159	20.37	12.99	1.52
	29.08	18.27	73.72	0.00	0.0682	11.93	524.8	392.00	0.0759	625.8	11.265	20.57	13.13	1.52
	30.09	18.27	73.72	-0.00	0.0682	11.93	524.7	391.95	0.0761	628.8	11.318	20.67	13.21	1.52
	31.08	18.23	73.69	0.00	0.0682	11.93	525.0	392.27	0.0765	632.5	11.385	20.79	13.29	1.52
	32.07	18.27	73.72	0.00	0.0682	11.93	525.0	392.18	0.0768	637.5	11.475	20.95	13.42	1.52
	33.09	18.27	73.72	-0.00	0.0682	11.92	524.4	391.69	0.0768	637.6	11.476	20.95	13.42	1.52
	34.05	18.27	73.72	0.00	0.0681	11.91	524.2	391.58	0.0766	635.7	11.443	20.89	13.37	1.52
	35.07	18.27	73.72	0.00	0.0682	11.92	524.5	391.80	0.0763	633.1	11.396	20.81	13.31	1.52
	36.07	18.27	73.72	0.00	0.0682	11.93	524.9	392.04	0.0760	629.4	11.329	20.69	13.22	1.52
	37.07	18.25	73.72	-0.00	0.0682	11.93	525.0	392.16	0.0755	623.5	11.224	20.49	13.08	1.52
	38.08	18.28	73.72	-0.00	0.0683	11.95	525.7	392.72	0.0746	613.5	11.043	20.16	12.83	1.52
	39.06	18.28	73.72	0.00	0.0683	11.94	525.5	392.55	0.0740	604.0	10.872	19.85	12.59	1.52
	40.06	18.28	73.74	0.00	0.0682	11.93	524.9	391.99	0.0742	604.6	10.883	19.87	12.61	1.52
	41.06	18.28	73.69	0.00	0.0682	11.93	525.0	392.34	0.0747	611.6	11.009	20.11	12.78	1.53
	42.07	18.30	73.64	0.00	0.0682	11.93	525.0	392.63	0.0750	615.7	11.082	20.26	12.89	1.52
	43.07	18.30	73.69	-0.00	0.0684	11.96	526.4	393.38	0.0745	611.3	11.003	20.10	12.78	1.52
	44.05	18.30	73.72	0.00	0.0686	12.00	528.0	394.45	0.0737	600.4	10.806	19.73	12.50	1.52
	45.07	18.30	73.64	0.00	0.0686	12.00	528.2	395.00	0.0734	596.9	10.745	19.64	12.41	1.52
	46.08	18.30	73.72	-0.00	0.0685	12.00	528.0	394.42	0.0734	596.7	10.740	19.61	12.41	1.52
	47.08	18.32	73.69	-0.00	0.0685	11.99	527.7	394.37	0.0729	592.3	10.662	19.48	12.30	1.53
	48.08	18.30	73.72	-0.00	0.0686	12.00	528.1	394.50	0.0729	590.7	10.633	19.42	12.25	1.53
	49.08	18.30	73.72	0.00	0.0685	12.00	528.0	394.44	0.0730	592.4	10.664	19.47	12.30	1.52
	50.06	18.32	73.69	0.00	0.0685	12.00	528.1	394.64	0.0731	592.9	10.673	19.50	12.31	1.52
	51.09	18.32	73.72	-0.00	0.0686	12.01	528.4	394.77	0.0730	592.5	10.665	19.48	12.30	1.53
	52.07	18.33	73.74	-0.00	0.0686	12.01	528.6	394.83	0.0731	593.2	10.677	19.49	12.32	1.53
	53.07	18.32	73.72	0.00	0.0686	12.02	528.7	394.97	0.0731	594.2	10.696	19.53	12.34	1.53
	54.07	18.30	73.72	0.00	0.0686	12.01	528.6	394.89	0.0733	595.0	10.711	19.56	12.36	1.53
	55.08	18.32	73.69	-0.00	0.0686	12.01	528.6	395.03	0.0733	595.6	10.721	19.59	12.38	1.53
	56.08	18.33	73.69	-0.00	0.0686	12.01	528.6	395.08	0.0734	596.2	10.732	19.61	12.40	1.53
	57.08	18.33	73.75	0.00	0.0686	12.02	528.8	394.91	0.0734	596.1	10.729	19.59	12.39	1.53
	58.06	18.33	73.69	0.00	0.0686	12.02	528.7	395.18	0.0732	595.1	10.712	19.57	12.37	1.53
	59.08	18.33	73.72	-0.00	0.0686	12.02	529.0	395.22	0.0728	591.1	10.640	19.43	12.27	1.53
	60.06	18.33	73.72	0.00	0.0687	12.04	529.8	395.80	0.0726	587.8	10.581	19.32	12.18	1.53
	61.08	18.33	73.72	0.00	0.0687	12.05	530.1	396.01	0.0727	588.7	10.597	19.35	12.20	1.53
	62.07	18.33	73.72	-0.00	0.0688	12.05	530.4	396.28	0.0728	589.1	10.604	19.37	12.22	1.53
	63.07	18.33	73.72	0.00	0.0688	12.07	531.0	396.72	0.0728	589.8	10.617	19.39	12.23	1.53
	64.07	18.33	73.69	-0.00	0.0689	12.08	531.4	397.17	0.0728	589.5	10.610	19.38	12.22	1.53
	65.07	18.33	73.72	0.00	0.0688	12.07	531.2	396.89	0.0725	587.1	10.567	19.30	12.16	1.53
	66.14	18.35	73.72	0.00	0.0688	12.07	531.0	396.71	0.0724	585.0	10.530	19.23	12.11	1.53
	67.08	18.35	73.72	-0.00	0.0688	12.07	530.9	396.69	0.0723	583.3	10.499	19.18	12.06	1.53
	68.06	18.35	73.69	-0.00	0.0689	12.07	531.1	396.95	0.0721	581.3	10.464	19.12	12.01	1.53
	69.06	18.37	73.72	0.00	0.0689	12.08	531.5	397.14	0.0719	579.1	10.423	19.04	11.96	1.53
	70.06	18.37	73.72	0.00	0.0689	12.09	532.0	397.54	0.0717	577.3	10.392	18.98	11.91	1.53
	71.06	18.37	73.69	0.00	0.0690	12.11	532.8	398.28	0.0717	576.7	10.381	18.97	11.89	1.53
	72.06	18.37	73.72	0.00	0.0691	12.12	533.1	398.35	0.0718	577.6	10.397	18.99	11.92	1.53
	73.13	18.37	73.72	0.00	0.0690	12.11	532.8	398.08	0.0720	579.9	10.438	19.07	11.98	1.53
	74.05	18.36	73.72	0.00	0.0689	12.09	532.0	397.51	0.0721	581.3	10.463	19.11	12.01	1.53
	75.07	18.38	73.72	0.00	0.0689	12.09	532.0	397.55	0.0722	581.8	10.473	19.13	12.03	1.53
	76.07	18.38	73.72	-0.00	0.0691	12.11	533.0	398.30	0.0722	582.5	10.484	19.15	12.04	1.53
	77.10	18.36	73.72	-0.00	0.0691	12.13	533.5	398.64	0.0724	585.6	10.540	19.25	12.12	1.53
	78.06	18.38	73.72	0.00	0.0691	12.13	533.7	398.81	0.0728	588.7	10.597	19.36	12.21	1.53
	79.08	18.40	73.69	0.00	0.0692	12.15	534.6	399.66	0.0729	589.6	10.612	19.39	12.23	1.53
	80.08	18.40	73.72	0.00	0.0693	12.17	535.3	400.02	0.0729	590.5	10.629	19.42	12.25	1.53
	81.07	18.40	73.72	0.00	0.0693	12.17	535.5	400.15	0.0728	590.4	10.627	19.41	12.25	1.53
	82.07	18.38	73.69	0.00	0.0693	12.16	535.3	400.11	0.0725	586.7	10.561	19.30	12.15	1.53
	83.07	18.43	73.72	0.00	0.0692	12.15	534.5	399.46	0.0721	581.7	10.470	19.13	12.03	1.53
	84.08	18.42	73.72	-0.00	0.0691	12.13	533.7	398.85	0.0718	578.0	10.405	19.01	11.93	1.53
	85.07	18.42	73.69	0.00	0.0691	12.13	533.8	399.06	0.0717	576.4	10.376	18.96	11.89	1.53
	86.07	18.43	73.69	0.00	0.0691	12.13	533.9	399.13	0.0717	576.4	10.376	18.96	11.89	1.53
	87.14	18.43	73.69	0.00	0.0692	12.15	534.8	399.80	0.0719	577.9	10.403	19.01	11.93	1.53
	88.06	18.43	73.69	0.00	0.0693	12.18	535.8	400.55	0.0722	581.5	10.467	19.13	12.02	1.53
	89.16	18.43	73.69	-0.00	0.0693	12.18	536.1	400.81	0.0724	584.4	10.519	19.22	12.10	1.53
	90.06	18.43	73.72	0.00	0.0692	12.17	535.5	400.19	0.0725	586.0	10.548	19.27	12.14	1.53
	91.09	18.43	73.72	-0.00	0.0692	12.15	534.4	399.42	0.0726	587.1	10.567	19.31	12.17	1.54
	92.07	18.43	73.69	-0.00	0.0691	12.13	533.7	399.01	0.0728	589.2	10.606	19.38	12.22	1.54
	93.07	18.45	73.69	0.00	0.0690	12.12	533.1	398.63	0.0731	591.8	10.652	19.47	12.29	1.54
	94.07	18.45	73.67	0.00	0.0690	12.12	533.3	398.86	0.0732	593.9	10.691	19.55	12.34	1.54
	95.07	18.46	73.69	0.00	0.0690	12.12	533.3	398.73	0.0732	594.5	10.701	19.56	12.36	1.54
	96.07	18.45	73.69	-0.00	0.0691	12.13	533.6	398.96	0.0731	592.5	10.664	19.49	12.31	1.54
	97.08	18.47	73.72	-0.00	0.0692	12.15	534.5	399.54	0.0730	592.2	10.659	19.48	12.30	1.54
	98.06	18.43	73.72	0.00	0.0693	12.15	534.8	399.68	0.0729	591.2	10.642	19.44	12.27	1.54
	99.08	18.45	73.72	-0.00	0.0692	12.16	534.9	399.83	0.0728	589.6	10.613	19.39	12.23	1.54
	100.08	18.45	73.72	-0.00	0.0692	12.15	534.8	399.73	0.0728	589.4	10.609	19.38	12.23	1.54
	101.07	18.46	73.72	-0.00	0.0692	12.15	534.5	399.54	0.0730	591.7	10.650	19.46	12.29	1.54
	102.07	18.46	73.72	-0.00	0.0691	12.14	534.2	399.27	0.0731	593.6	10.684	19.52	12.34	1.54
	103.07	18.46	73.69	-0.00	0.0691	12.13	533.9	399.21	0.0731	593.5	10.682	19.53	12.33	1.54
	104.07	18.45	73.74	-0.00	0.0691	12.13	533.9	398.89	0.0730	592.8	10.670	19.49	12.31	1.54
	105.14	18.46	73.72	-0.00	0.0691	12.13	533.8	399.02	0.0731	593.1	10.675	19.51	12.32	1.54
	106.05	18.46	73.69	0.00	0.0691	12.13	533.7	399.03	0.0733	594.8	10.707	19.57	12.37	1.54
	107.09	18.46	73.72	-0.00	0.0691	12.12	533.5	398.77	0.0733	596.1	10.729	19.60	12.40	1.54
	108.06	18.46	73.72	0.00	0.0691	12.12	533.4	398.71	0.0732	595.1	10.712	19.57	12.37	1.54
	109.08	18.48	73.69	0.00	0.0691	12.12	533.4	398.87	0.0730	592.1	10.657	19.48	12.30	1.54
	110.08	18.48	73.72	-0.00	0.0690	12.11	533.0	398.39	0.0729	590.8	10.634	19.43	12.27	1.54
	111.07	18.48	73.72	0.00	0.0689	12.09	531.9	397.59	0.0728	590.4	10.627	19.42	12.26	1.54
	112.07	18.48	73.72	0.00	0.0689	12.08	531.7	397.43	0.0727	589.0	10.603	19.37	12.22	1.54
	113.08	18.50	73.72	-0.00	0.0689	12.08	531.6	397.40	0.0728	589.4	10.609	19.39	12.23	1.54
	114.07	18.50	73.72	0.00	0.0689	12.08	531.7	397.49	0.0730	591.2	10.641	19.44	12.28	1.54
	115.08	18.50	73.72	-0.00	0.0689	12.10	532.2	397.85	0.0731	592.6	10.667	19.49	12.31	1.54
	116.06	18.50	73.72	0.00	0.0690	12.10	532.3	397.93	0.0731	593.5	10.684	19.52	12.34	1.55
	117.08	18.50	73.72	-0.00	0.0690	12.10	532.3	397.91	0.0732	594.6	10.702	19.56	12.36	1.54
	118.06	18.50	73.72	0.00	0.0690	12.10	532.4	397.96	0.0731	593.3	10.679	19.51	12.33	1.54
	119.08	18.51	73.72	0.00	0.0690	12.11	532.7	398.24	0.0729	590.4	10.628	19.42	12.26	1.54
	120.06	18.51	73.72	0.00	0.0691	12.11	533.0	398.50	0.0726	588.3	10.590	19.35	12.20	1.54
	121.09	18.53	73.69	-0.00	0.0690	12.12	533.1	398.72	0.0727	587.9	10.583	19.35	12.19	1.54
