Jul 23 2015 at 9:00:08
Frequency: 1Hz.
CO2
Zero:  Value:0.954578  Date:18 Mar 2005	 at 07:22:33	
Span:  Value:0.999099  Date:18 Mar 2005	 at 07:25:09	
H2O
Zero:  Value:0.712542  Date:18 Mar 2005	 at 07:52:31	
Span:  Value:0.993508  Date:18 Mar 2005	 at 11:44:01	
	Relative Time	Temperature	Pressure	Aux Input	CO2 Absorptance	CO2 mmol/m3	CO2 mg/m3	CO2 umol/mol	H2O Absorptance	H2O mmol/m3	H2O g/m3	H2O mmol/mol	H2O(°C)	Cooler Voltage
	0.80	16.72	73.72	0.00	0.0780	14.44	635.4	472.09	0.0647	502.8	9.051	16.44	9.75	1.41
	1.78	16.75	73.72	0.00	0.0792	14.59	642.0	477.03	0.0655	507.8	9.141	16.60	9.90	1.42
	2.79	16.72	73.72	0.00	0.0795	14.53	639.3	474.99	0.0659	508.0	9.145	16.61	9.90	1.42
	3.78	16.72	73.72	0.00	0.0796	14.83	652.3	484.68	0.0665	519.5	9.351	16.98	10.23	1.41
	4.79	16.72	73.72	0.00	0.0820	15.03	661.3	491.31	0.0677	525.3	9.456	17.17	10.40	1.41
	5.77	16.72	73.69	0.00	0.0800	14.75	648.9	482.28	0.0673	525.9	9.466	17.20	10.42	1.41
	6.79	16.74	73.72	0.00	0.0811	14.95	657.7	488.69	0.0678	531.3	9.564	17.37	10.57	1.42
	7.79	16.72	73.69	0.00	0.0810	15.00	659.8	490.43	0.0678	532.3	9.581	17.41	10.60	1.42
	8.78	16.74	73.72	0.00	0.0814	15.09	663.8	493.26	0.0679	533.8	9.608	17.45	10.64	1.42
	9.86	16.74	73.72	0.00	0.0816	15.12	665.1	494.17	0.0680	534.4	9.618	17.47	10.66	1.41
	10.78	16.74	73.69	0.00	0.0812	15.12	665.3	494.53	0.0681	534.7	9.625	17.49	10.67	1.42
	11.79	16.75	73.69	-0.00	0.0813	15.15	666.5	495.45	0.0688	541.8	9.752	17.72	10.87	1.42
	12.78	16.74	73.72	0.00	0.0813	15.05	662.2	492.03	0.0688	541.4	9.745	17.70	10.85	1.42
	13.81	16.72	73.69	-0.00	0.0813	15.02	661.0	491.29	0.0687	541.1	9.740	17.70	10.85	1.42
	14.77	16.74	73.69	0.00	0.0816	15.12	665.2	494.44	0.0688	543.8	9.789	17.79	10.92	1.42
	15.80	16.77	73.72	-0.00	0.0813	15.05	662.3	492.19	0.0689	543.6	9.785	17.78	10.92	1.42
	16.79	16.72	73.72	-0.00	0.0811	15.01	660.4	490.67	0.0688	543.2	9.777	17.76	10.90	1.42
	17.79	16.74	73.69	0.00	0.0811	15.00	659.9	490.50	0.0689	544.3	9.797	17.80	10.93	1.42
	18.78	16.77	73.67	0.00	0.0798	14.62	643.5	478.51	0.0696	552.5	9.945	18.08	11.16	1.42
	19.78	16.75	73.72	0.00	0.0801	14.77	649.8	482.89	0.0695	550.3	9.905	17.99	11.10	1.42
	20.87	16.75	73.69	-0.00	0.0802	14.75	649.0	482.47	0.0697	553.8	9.969	18.11	11.20	1.42
	21.79	16.79	73.72	-0.00	0.0811	15.02	660.8	491.12	0.0693	548.8	9.879	17.95	11.06	1.42
	22.79	16.77	73.72	-0.00	0.0798	14.69	646.4	480.32	0.0697	552.0	9.935	18.05	11.15	1.42
	23.79	16.77	73.72	-0.00	0.0798	14.77	649.8	482.91	0.0694	551.0	9.918	18.02	11.12	1.42
	24.79	16.77	73.72	-0.00	0.0798	14.64	644.2	478.68	0.0685	542.1	9.757	17.72	10.88	1.42
	25.79	16.77	73.69	0.00	0.0804	14.80	651.3	484.15	0.0683	538.3	9.690	17.61	10.77	1.42
	26.80	16.77	73.72	-0.00	0.0801	14.73	648.2	481.67	0.0686	539.4	9.710	17.64	10.80	1.42
	27.78	16.77	73.72	0.00	0.0796	14.69	646.3	480.28	0.0691	544.2	9.796	17.79	10.93	1.42
	28.78	16.75	73.69	0.00	0.0794	14.66	645.0	479.42	0.0691	544.6	9.803	17.81	10.94	1.42
	29.78	16.79	73.72	0.00	0.0788	14.46	636.0	472.68	0.0696	552.3	9.942	18.06	11.16	1.42
	30.78	16.80	73.72	0.00	0.0791	14.58	641.4	476.71	0.0693	543.9	9.790	17.79	10.93	1.42
	31.79	16.79	73.72	-0.00	0.0788	14.41	634.0	471.19	0.0699	556.6	10.019	18.20	11.27	1.42
	32.79	16.79	73.69	0.00	0.0789	14.48	637.0	473.57	0.0699	556.1	10.010	18.19	11.26	1.42
	33.79	16.79	73.74	-0.00	0.0792	14.52	639.0	474.74	0.0697	554.2	9.976	18.12	11.21	1.42
	34.79	16.79	73.72	0.00	0.0786	14.38	632.6	470.12	0.0697	553.5	9.962	18.10	11.19	1.42
	35.79	16.79	73.69	-0.00	0.0782	14.25	627.2	466.23	0.0700	556.5	10.017	18.20	11.27	1.42
	36.79	16.77	73.69	0.00	0.0789	14.44	635.3	472.29	0.0697	553.5	9.964	18.11	11.19	1.42
	37.78	16.80	73.72	0.00	0.0789	14.45	635.8	472.56	0.0699	556.8	10.023	18.21	11.28	1.42
	38.78	16.80	73.72	0.00	0.0790	14.50	638.1	474.25	0.0699	555.6	10.001	18.17	11.25	1.42
	39.80	16.80	73.72	-0.00	0.0787	14.40	633.7	470.95	0.0702	558.8	10.059	18.27	11.34	1.42
	40.80	16.79	73.69	-0.00	0.0790	14.50	637.9	474.25	0.0700	556.9	10.025	18.22	11.28	1.42
	41.87	16.79	73.72	-0.00	0.0783	14.35	631.3	469.18	0.0703	559.2	10.066	18.29	11.35	1.42
	42.79	16.79	73.72	-0.00	0.0782	14.28	628.4	467.03	0.0703	560.1	10.081	18.31	11.37	1.42
	43.79	16.80	73.69	0.00	0.0777	14.16	623.1	463.24	0.0703	560.2	10.084	18.33	11.37	1.42
	44.79	16.77	73.72	-0.00	0.0783	14.29	628.6	467.10	0.0705	562.9	10.132	18.41	11.44	1.42
	45.80	16.79	73.69	-0.00	0.0782	14.32	630.0	468.36	0.0707	564.1	10.154	18.45	11.48	1.42
	46.78	16.80	73.72	0.00	0.0782	14.29	628.8	467.29	0.0707	563.2	10.138	18.42	11.45	1.42
	47.80	16.79	73.67	0.00	0.0780	14.26	627.5	466.69	0.0711	565.6	10.181	18.51	11.52	1.42
	48.78	16.82	73.72	0.00	0.0771	14.09	619.8	460.69	0.0724	577.8	10.400	18.89	11.84	1.42
	49.78	16.80	73.72	0.00	0.0770	13.98	615.3	457.31	0.0723	586.7	10.560	19.19	12.07	1.42
	50.79	16.80	73.69	0.00	0.0773	14.06	618.5	459.81	0.0719	578.4	10.411	18.92	11.86	1.42
	51.79	16.80	73.72	-0.00	0.0777	14.14	622.0	462.30	0.0714	573.4	10.321	18.75	11.72	1.42
	52.79	16.82	73.72	0.00	0.0780	14.27	627.7	466.54	0.0711	568.3	10.230	18.59	11.59	1.42
	53.79	16.82	73.72	-0.00	0.0780	14.21	625.4	464.82	0.0714	572.8	10.310	18.73	11.71	1.42
	54.80	16.82	73.72	-0.00	0.0776	14.16	623.0	463.04	0.0714	572.8	10.311	18.73	11.71	1.42
	55.79	16.80	73.72	0.00	0.0776	14.08	619.4	460.35	0.0715	577.5	10.394	18.88	11.83	1.42
	56.80	16.82	73.72	-0.00	0.0778	14.19	624.6	464.20	0.0716	575.1	10.352	18.81	11.77	1.42
	57.78	16.82	73.72	0.00	0.0769	14.01	616.3	458.07	0.0725	583.3	10.500	19.08	11.99	1.42
	58.78	16.82	73.72	0.00	0.0775	14.10	620.5	461.16	0.0722	579.7	10.435	18.96	11.89	1.42
	59.80	16.84	73.69	-0.00	0.0773	14.04	617.7	459.28	0.0723	583.7	10.507	19.10	12.00	1.43
	60.79	16.84	73.69	0.00	0.0772	14.05	618.2	459.66	0.0721	582.6	10.486	19.06	11.97	1.42
	61.79	16.82	73.72	0.00	0.0769	14.05	618.2	459.50	0.0724	585.6	10.542	19.15	12.05	1.42
	62.87	16.85	73.72	0.00	0.0770	14.00	615.8	457.74	0.0728	588.7	10.597	19.26	12.13	1.42
	63.77	16.84	73.72	0.00	0.0774	14.09	619.9	460.77	0.0724	585.1	10.533	19.14	12.03	1.42
	64.80	16.85	73.72	-0.00	0.0772	14.04	617.6	459.09	0.0723	584.6	10.523	19.12	12.02	1.42
	65.79	16.85	73.75	-0.00	0.0771	14.05	618.2	459.40	0.0728	588.4	10.591	19.24	12.12	1.43
	66.78	16.85	73.74	0.00	0.0765	13.85	609.5	452.92	0.0735	596.8	10.742	19.51	12.33	1.42
	67.78	16.84	73.69	-0.00	0.0765	13.86	610.0	453.56	0.0731	593.9	10.691	19.43	12.26	1.42
	68.80	16.85	73.69	-0.00	0.0766	13.90	611.8	454.93	0.0733	595.9	10.726	19.50	12.31	1.42
	69.78	16.84	73.72	0.00	0.0767	13.88	610.9	454.09	0.0731	593.5	10.682	19.41	12.25	1.43
	70.79	16.85	73.69	-0.00	0.0765	13.86	610.0	453.60	0.0734	596.5	10.737	19.52	12.33	1.43
	71.81	16.85	73.72	-0.00	0.0767	13.89	611.2	454.33	0.0732	597.5	10.755	19.54	12.35	1.43
	72.85	16.87	73.72	0.00	0.0761	13.78	606.5	450.89	0.0740	601.7	10.830	19.68	12.46	1.43
	73.79	16.84	73.72	0.00	0.0760	13.79	606.6	450.87	0.0739	601.4	10.825	19.67	12.45	1.43
	74.79	16.85	73.69	0.00	0.0762	13.77	605.8	450.48	0.0736	599.3	10.788	19.61	12.40	1.42
	75.80	16.87	73.67	-0.00	0.0760	13.74	604.5	449.66	0.0741	601.0	10.819	19.67	12.44	1.43
	76.78	16.87	73.72	0.00	0.0760	13.72	603.6	448.74	0.0737	604.4	10.879	19.77	12.53	1.43
	77.80	16.87	73.72	-0.00	0.0759	13.71	603.1	448.30	0.0736	602.4	10.843	19.70	12.48	1.43
	78.80	16.87	73.69	-0.00	0.0762	13.81	607.5	451.73	0.0739	601.6	10.829	19.69	12.46	1.43
	79.80	16.87	73.72	0.00	0.0763	13.80	607.4	451.51	0.0739	604.3	10.878	19.77	12.53	1.43
	80.78	16.87	73.72	0.00	0.0757	13.66	601.1	446.82	0.0744	607.3	10.931	19.86	12.60	1.43
	81.79	16.87	73.72	0.00	0.0759	13.70	603.0	448.26	0.0743	608.3	10.949	19.90	12.63	1.43
	82.79	16.89	73.72	-0.00	0.0760	13.75	605.1	449.83	0.0743	608.2	10.947	19.89	12.62	1.43
	83.80	16.87	73.72	-0.00	0.0760	13.76	605.6	450.19	0.0743	606.4	10.915	19.83	12.58	1.43
	84.77	16.90	73.74	0.00	0.0759	13.71	603.2	448.34	0.0743	607.7	10.939	19.87	12.61	1.43
	85.78	16.89	73.72	0.00	0.0759	13.71	603.3	448.51	0.0746	609.6	10.973	19.94	12.66	1.43
	86.86	16.87	73.72	0.00	0.0758	13.69	602.6	447.93	0.0747	613.0	11.034	20.05	12.74	1.43
	87.78	16.87	73.74	0.00	0.0755	13.68	602.0	447.34	0.0747	610.3	10.985	19.95	12.68	1.43
	88.80	16.89	73.72	0.00	0.0753	13.58	597.6	444.27	0.0745	610.5	10.990	19.97	12.68	1.43
	89.80	16.89	73.74	-0.00	0.0750	13.53	595.2	442.35	0.0748	615.1	11.073	20.11	12.80	1.43
	90.79	16.89	73.72	0.00	0.0751	13.52	594.7	442.08	0.0753	618.8	11.138	20.24	12.89	1.43
	91.79	16.89	73.72	-0.00	0.0747	13.46	592.0	440.12	0.0774	640.0	11.521	20.94	13.40	1.43
	92.81	16.87	73.72	-0.00	0.0744	13.35	587.2	436.54	0.0771	642.9	11.573	21.03	13.47	1.43
	93.79	16.89	73.72	-0.00	0.0746	13.42	590.5	438.96	0.0759	625.4	11.257	20.46	13.05	1.43
	94.80	16.89	73.72	-0.00	0.0743	13.36	587.7	436.89	0.0769	634.8	11.426	20.76	13.28	1.43
	95.78	16.89	73.72	-0.00	0.0743	13.35	587.3	436.57	0.0769	637.8	11.481	20.86	13.35	1.43
	96.80	16.87	73.74	0.00	0.0744	13.38	588.8	437.53	0.0764	633.9	11.409	20.73	13.25	1.43
	97.78	16.90	73.69	0.00	0.0744	13.36	588.0	437.28	0.0764	635.5	11.440	20.80	13.30	1.43
	98.78	16.90	73.72	0.00	0.0745	13.40	589.7	438.38	0.0758	622.9	11.213	20.38	12.99	1.43
	99.79	16.89	73.72	0.00	0.0742	13.31	585.4	435.22	0.0769	637.4	11.474	20.85	13.34	1.43
	100.79	16.90	73.69	-0.00	0.0745	13.37	588.1	437.39	0.0756	622.4	11.204	20.37	12.98	1.43
	101.78	16.90	73.74	0.00	0.0744	13.37	588.3	437.19	0.0754	624.1	11.234	20.41	13.02	1.43
	102.79	16.92	73.72	0.00	0.0740	13.26	583.6	433.89	0.0777	651.3	11.724	21.31	13.68	1.43
	103.77	16.89	73.72	0.00	0.0741	13.28	584.2	434.29	0.0776	650.6	11.712	21.28	13.66	1.43
	104.80	16.92	73.69	-0.00	0.0740	13.25	582.9	433.56	0.0769	645.3	11.616	21.12	13.53	1.43
	105.80	16.92	73.72	-0.00	0.0742	13.32	585.9	435.64	0.0762	629.3	11.327	20.59	13.15	1.43
	106.80	16.90	73.69	-0.00	0.0737	13.21	581.3	432.29	0.0776	648.7	11.677	21.23	13.61	1.43
	107.80	16.90	73.72	-0.00	0.0738	13.22	581.7	432.47	0.0770	642.8	11.571	21.03	13.47	1.43
	108.80	16.92	73.72	0.00	0.0738	13.23	582.2	432.87	0.0763	629.3	11.328	20.59	13.15	1.43
	109.79	16.90	73.72	0.00	0.0738	13.21	581.1	432.03	0.0762	632.1	11.379	20.68	13.22	1.43
	110.78	16.92	73.72	0.00	0.0737	13.19	580.5	431.58	0.0761	629.3	11.328	20.59	13.15	1.43
	111.81	16.93	73.72	-0.00	0.0736	13.20	580.7	431.78	0.0766	635.9	11.446	20.80	13.31	1.44
	112.77	16.93	73.72	0.00	0.0737	13.21	581.4	432.31	0.0762	626.2	11.272	20.49	13.07	1.43
	113.79	16.93	73.72	0.00	0.0738	13.24	582.5	433.09	0.0759	628.0	11.303	20.54	13.12	1.43
	114.85	16.93	73.69	0.00	0.0737	13.19	580.5	431.78	0.0762	631.7	11.371	20.68	13.21	1.43
	115.78	16.93	73.72	0.00	0.0734	13.12	577.4	429.32	0.0763	631.0	11.357	20.64	13.19	1.43
	116.78	16.95	73.74	0.00	0.0729	13.04	573.9	426.58	0.0773	645.8	11.624	21.12	13.54	1.44
	117.80	16.93	73.72	-0.00	0.0732	13.05	574.3	427.00	0.0767	638.4	11.492	20.89	13.37	1.44
	118.78	16.95	73.69	0.00	0.0732	13.04	573.8	426.83	0.0765	633.8	11.409	20.74	13.26	1.44
	119.78	16.93	73.72	0.00	0.0724	12.89	567.0	421.61	0.0779	649.1	11.683	21.23	13.62	1.44
	120.81	16.95	73.69	0.00	0.0723	12.89	567.0	421.79	0.0790	663.4	11.941	21.71	13.96	1.43
	121.79	16.95	73.69	-0.00	0.0727	12.97	570.6	424.42	0.0773	644.3	11.598	21.09	13.51	1.43
	122.79	16.93	73.69	0.00	0.0726	12.99	571.5	425.06	0.0775	643.4	11.582	21.06	13.49	1.44
