Jul 25 2015 at 10:33:23
Frequency: 1.00Hz.
CO2
Zero:  Value:0.95  Date:18 Mar 2005	 at 07:22:33	
Span:  Value:1.00  Date:18 Mar 2005	 at 07:25:09	
H2O
Zero:  Value:0.71  Date:18 Mar 2005	 at 07:52:31	
Span:  Value:0.99  Date:18 Mar 2005	 at 11:44:01	
	Relative Time	Temperature	Pressure	Aux Input	CO2 Absorptance	CO2 mmol/m3	CO2 mg/m3	CO2 umol/mol	H2O Absorptance	H2O mmol/m3	H2O g/m3	H2O mmol/mol	H2O(°C)	Cooler Voltage
	0.36	20.47	67.81	-0.00	0.0604	10.47	460.5	376.79	0.0611	470.6	8.471	16.94	8.95	1.48
	1.44	20.45	67.81	-0.00	0.0604	10.44	459.4	375.85	0.0610	476.1	8.570	17.14	9.13	1.48
	2.34	20.45	67.83	0.00	0.0604	10.44	459.4	375.68	0.0614	477.0	8.585	17.16	9.15	1.48
	3.35	20.40	67.81	0.00	0.0600	10.39	457.3	374.06	0.0628	488.2	8.788	17.57	9.50	1.48
	4.35	20.38	67.81	-0.00	0.0597	10.28	452.4	370.03	0.0637	507.6	9.136	18.27	10.07	1.48
	5.37	20.37	67.81	-0.00	0.0600	10.36	455.9	372.87	0.0630	497.7	8.958	17.91	9.78	1.48
	6.35	20.38	67.81	0.00	0.0599	10.35	455.5	372.60	0.0632	496.5	8.937	17.87	9.75	1.48
	7.38	20.40	67.81	-0.00	0.0599	10.34	455.0	372.24	0.0631	497.5	8.956	17.91	9.78	1.48
	8.36	20.40	67.81	0.00	0.0598	10.33	454.4	371.70	0.0625	493.4	8.881	17.76	9.65	1.48
	9.38	20.42	67.81	-0.00	0.0599	10.33	454.3	371.65	0.0625	489.7	8.814	17.62	9.54	1.48
	10.36	20.43	67.81	0.00	0.0599	10.32	454.0	371.40	0.0624	489.6	8.812	17.62	9.54	1.48
	11.36	20.45	67.81	-0.00	0.0599	10.33	454.4	371.78	0.0620	484.9	8.729	17.46	9.40	1.48
	12.36	20.47	67.83	0.00	0.0600	10.34	455.1	372.21	0.0623	487.5	8.776	17.55	9.48	1.48
	13.35	20.45	67.81	-0.00	0.0599	10.34	454.9	372.20	0.0624	489.0	8.802	17.60	9.52	1.48
	14.37	20.45	67.81	-0.00	0.0600	10.34	455.1	372.36	0.0625	489.7	8.814	17.63	9.54	1.48
	15.35	20.43	67.81	0.00	0.0600	10.35	455.4	372.60	0.0624	489.1	8.804	17.61	9.53	1.48
	16.36	20.43	67.81	-0.00	0.0600	10.36	455.7	372.85	0.0623	488.2	8.788	17.57	9.50	1.48
	17.44	20.45	67.81	-0.00	0.0600	10.36	455.6	372.79	0.0622	487.3	8.771	17.54	9.47	1.48
	18.36	20.47	67.81	-0.00	0.0600	10.37	456.2	373.25	0.0622	487.3	8.772	17.55	9.47	1.48
	19.34	20.43	67.81	0.00	0.0600	10.36	456.0	373.05	0.0622	487.2	8.770	17.54	9.47	1.48
	20.36	20.45	67.81	0.00	0.0601	10.38	456.7	373.64	0.0621	486.8	8.763	17.53	9.46	1.48
	21.34	20.45	67.83	0.00	0.0600	10.38	456.6	373.46	0.0622	486.8	8.763	17.52	9.46	1.48
	22.37	20.43	67.81	0.00	0.0600	10.37	456.1	373.13	0.0621	485.9	8.747	17.49	9.43	1.48
	23.35	20.45	67.81	0.00	0.0600	10.37	456.1	373.19	0.0621	487.0	8.765	17.53	9.46	1.48
	24.37	20.45	67.81	-0.00	0.0601	10.37	456.5	373.46	0.0622	487.3	8.771	17.54	9.47	1.48
	25.36	20.47	67.78	-0.00	0.0600	10.37	456.2	373.40	0.0622	487.6	8.777	17.56	9.48	1.48
	26.35	20.47	67.78	0.00	0.0599	10.34	455.1	372.49	0.0620	485.3	8.736	17.48	9.41	1.48
	27.36	20.45	67.83	-0.00	0.0599	10.34	455.0	372.17	0.0621	484.7	8.724	17.44	9.39	1.48
	28.34	20.43	67.78	0.00	0.0600	10.34	455.1	372.51	0.0622	486.2	8.752	17.51	9.44	1.48
	29.36	20.43	67.78	-0.00	0.0599	10.33	454.6	372.10	0.0623	488.6	8.795	17.60	9.51	1.48
	30.36	20.42	67.83	-0.00	0.0599	10.34	454.7	371.90	0.0622	486.6	8.759	17.51	9.45	1.48
	31.43	20.42	67.81	-0.00	0.0600	10.35	455.5	372.62	0.0621	486.5	8.756	17.51	9.44	1.48
	32.34	20.42	67.81	0.00	0.0600	10.36	456.0	373.04	0.0623	488.1	8.786	17.57	9.49	1.48
	33.35	20.42	67.83	0.00	0.0600	10.37	456.1	372.98	0.0625	490.6	8.831	17.65	9.57	1.48
	34.37	20.42	67.81	-0.00	0.0598	10.31	453.8	371.21	0.0626	490.6	8.831	17.66	9.57	1.48
	35.38	20.43	67.81	-0.00	0.0597	10.29	452.6	370.29	0.0632	497.6	8.957	17.91	9.78	1.48
	36.36	20.47	67.81	0.00	0.0595	10.25	451.1	369.09	0.0640	506.3	9.113	18.23	10.04	1.48
	37.36	20.45	67.81	0.00	0.0595	10.25	451.1	369.06	0.0638	506.3	9.113	18.22	10.04	1.48
	38.36	20.42	67.81	0.00	0.0597	10.27	452.0	369.77	0.0638	506.5	9.117	18.23	10.05	1.48
	39.36	20.42	67.81	-0.00	0.0598	10.31	453.7	371.12	0.0633	499.2	8.986	17.97	9.83	1.48
	40.44	20.40	67.83	-0.00	0.0598	10.32	454.2	371.46	0.0630	496.5	8.937	17.87	9.75	1.48
	41.36	20.40	67.81	-0.00	0.0598	10.32	454.2	371.56	0.0631	496.4	8.936	17.87	9.74	1.48
	42.35	20.42	67.83	0.00	0.0597	10.30	453.3	370.74	0.0631	499.2	8.985	17.96	9.83	1.48
	43.34	20.40	67.81	0.00	0.0597	10.30	453.0	370.58	0.0634	500.5	9.009	18.02	9.87	1.48
	44.35	20.40	67.81	0.00	0.0598	10.29	452.8	370.45	0.0628	498.9	8.980	17.96	9.82	1.48
	45.37	20.43	67.81	0.00	0.0597	10.29	452.9	370.49	0.0633	498.6	8.975	17.95	9.81	1.48
	46.36	20.42	67.81	-0.00	0.0597	10.29	452.7	370.36	0.0634	499.6	8.992	17.98	9.84	1.48
	47.36	20.43	67.81	-0.00	0.0598	10.30	453.3	370.83	0.0635	500.9	9.017	18.03	9.88	1.48
	48.34	20.45	67.81	0.00	0.0598	10.30	453.2	370.76	0.0630	497.5	8.954	17.91	9.78	1.48
	49.36	20.47	67.81	0.00	0.0597	10.29	452.8	370.51	0.0631	497.0	8.945	17.89	9.76	1.48
	50.36	20.47	67.81	-0.00	0.0597	10.28	452.5	370.28	0.0630	495.0	8.911	17.82	9.71	1.48
	51.34	20.46	67.81	0.00	0.0597	10.29	452.9	370.59	0.0629	495.4	8.917	17.83	9.72	1.48
	52.34	20.50	67.81	0.00	0.0598	10.30	453.4	370.99	0.0629	495.7	8.922	17.85	9.73	1.48
	53.37	20.48	67.78	-0.00	0.0598	10.32	453.9	371.59	0.0628	493.1	8.876	17.76	9.65	1.48
	54.37	20.50	67.81	-0.00	0.0598	10.31	453.5	371.12	0.0630	494.7	8.905	17.81	9.70	1.48
	55.36	20.50	67.81	-0.00	0.0598	10.32	454.2	371.63	0.0628	494.5	8.901	17.80	9.69	1.48
	56.36	20.50	67.81	0.00	0.0598	10.31	453.8	371.37	0.0629	493.0	8.873	17.75	9.65	1.48
	57.36	20.50	67.81	0.00	0.0598	10.31	453.8	371.36	0.0631	497.8	8.961	17.92	9.79	1.48
	58.36	20.52	67.81	0.00	0.0598	10.30	453.2	370.92	0.0630	496.4	8.935	17.87	9.75	1.48
	59.34	20.52	67.81	0.00	0.0598	10.32	453.9	371.48	0.0628	495.0	8.910	17.82	9.71	1.48
	60.36	20.52	67.83	0.00	0.0598	10.32	454.0	371.43	0.0623	491.1	8.840	17.68	9.59	1.48
	61.35	20.52	67.81	0.00	0.0598	10.29	452.6	370.41	0.0628	493.4	8.882	17.77	9.66	1.48
	62.37	20.52	67.78	-0.00	0.0597	10.29	452.9	370.79	0.0623	485.9	8.747	17.50	9.43	1.48
	63.35	20.52	67.81	-0.00	0.0596	10.29	452.5	370.33	0.0623	488.6	8.794	17.59	9.51	1.49
	64.35	20.48	67.81	0.00	0.0596	10.27	452.0	369.84	0.0629	494.1	8.893	17.79	9.68	1.49
	65.36	20.48	67.81	-0.00	0.0597	10.27	451.8	369.71	0.0631	496.6	8.940	17.88	9.76	1.48
	66.33	20.48	67.81	0.00	0.0597	10.28	452.4	370.15	0.0630	496.4	8.936	17.87	9.75	1.48
	67.36	20.47	67.81	-0.00	0.0596	10.28	452.4	370.14	0.0629	494.5	8.901	17.80	9.69	1.48
	68.36	20.47	67.81	-0.00	0.0595	10.25	450.9	368.96	0.0635	500.7	9.013	18.03	9.88	1.48
	69.36	20.48	67.83	0.00	0.0593	10.22	449.9	367.99	0.0635	503.2	9.058	18.11	9.95	1.49
	70.45	20.48	67.81	-0.00	0.0593	10.21	449.2	367.56	0.0638	504.7	9.085	18.17	10.00	1.49
	71.37	20.47	67.81	-0.00	0.0595	10.25	451.0	369.00	0.0634	501.0	9.018	18.04	9.89	1.48
	72.35	20.48	67.81	-0.00	0.0596	10.27	451.9	369.78	0.0632	500.3	9.006	18.01	9.86	1.48
	73.35	20.50	67.83	0.00	0.0595	10.27	451.7	369.51	0.0633	497.8	8.960	17.92	9.79	1.48
	74.36	20.50	67.81	-0.00	0.0595	10.24	450.7	368.82	0.0637	503.2	9.057	18.12	9.95	1.49
	75.35	20.50	67.81	0.00	0.0595	10.25	450.8	368.92	0.0638	505.6	9.101	18.20	10.02	1.49
	76.35	20.54	67.83	0.00	0.0594	10.23	450.2	368.28	0.0637	504.2	9.075	18.15	9.98	1.49
	77.36	20.52	67.81	-0.00	0.0594	10.23	450.0	368.30	0.0638	505.6	9.101	18.21	10.02	1.49
	78.34	20.54	67.81	0.00	0.0594	10.24	450.4	368.62	0.0640	507.4	9.133	18.27	10.08	1.49
	79.36	20.54	67.81	0.00	0.0594	10.24	450.6	368.72	0.0643	509.9	9.179	18.36	10.15	1.49
	80.37	20.54	67.81	-0.00	0.0595	10.25	450.8	368.96	0.0643	510.3	9.185	18.37	10.16	1.49
	81.35	20.52	67.81	0.00	0.0597	10.29	452.8	370.57	0.0626	492.8	8.870	17.74	9.64	1.49
	82.35	20.52	67.81	0.00	0.0595	10.26	451.4	369.41	0.0634	499.3	8.987	17.98	9.84	1.49
	83.35	20.50	67.81	0.00	0.0596	10.26	451.6	369.55	0.0632	498.5	8.973	17.95	9.81	1.49
	84.36	20.52	67.81	-0.00	0.0596	10.26	451.3	369.36	0.0638	506.7	9.121	18.25	10.06	1.49
	85.36	20.52	67.81	-0.00	0.0597	10.29	452.8	370.58	0.0634	499.5	8.992	17.99	9.84	1.49
	86.35	20.52	67.81	0.00	0.0592	10.19	448.5	367.07	0.0645	513.8	9.249	18.50	10.27	1.49
	87.34	20.52	67.83	0.00	0.0594	10.23	450.3	368.34	0.0641	510.1	9.182	18.36	10.16	1.49
	88.36	20.52	67.81	-0.00	0.0595	10.24	450.7	368.80	0.0642	509.2	9.166	18.34	10.13	1.49
	89.34	20.52	67.81	0.00	0.0594	10.22	449.8	368.12	0.0644	511.6	9.209	18.42	10.20	1.49
	90.34	20.52	67.81	0.00	0.0594	10.22	449.7	367.98	0.0644	512.2	9.219	18.44	10.22	1.49
	91.35	20.53	67.81	0.00	0.0595	10.25	451.0	369.09	0.0637	504.7	9.084	18.17	10.00	1.49
	92.35	20.54	67.83	-0.00	0.0595	10.24	450.6	368.68	0.0634	500.2	9.004	18.01	9.87	1.49
	93.35	20.52	67.81	0.00	0.0594	10.23	450.1	368.32	0.0637	505.9	9.107	18.22	10.03	1.49
	94.35	20.53	67.83	0.00	0.0593	10.22	449.5	367.74	0.0641	507.9	9.142	18.28	10.09	1.49
	95.36	20.54	67.81	0.00	0.0593	10.20	448.8	367.29	0.0643	511.6	9.208	18.42	10.20	1.49
	96.35	20.53	67.81	0.00	0.0592	10.18	448.1	366.73	0.0646	514.4	9.259	18.52	10.28	1.49
	97.34	20.53	67.81	0.00	0.0592	10.18	447.8	366.46	0.0648	517.0	9.306	18.62	10.36	1.49
	98.36	20.55	67.81	-0.00	0.0593	10.19	448.4	366.99	0.0645	515.6	9.281	18.57	10.32	1.49
	99.34	20.52	67.83	0.00	0.0593	10.21	449.0	367.33	0.0645	513.3	9.240	18.48	10.25	1.49
	100.36	20.52	67.81	-0.00	0.0593	10.21	449.4	367.77	0.0650	517.9	9.322	18.65	10.38	1.49
	101.35	20.52	67.81	0.00	0.0590	10.14	446.2	365.18	0.0652	520.0	9.360	18.72	10.44	1.49
	102.35	20.50	67.81	0.00	0.0591	10.14	446.3	365.24	0.0650	519.9	9.358	18.72	10.44	1.49
	103.35	20.53	67.81	0.00	0.0591	10.17	447.3	366.10	0.0648	516.1	9.291	18.59	10.33	1.49
	104.36	20.53	67.81	-0.00	0.0590	10.15	446.8	365.64	0.0654	522.2	9.400	18.81	10.51	1.49
	105.36	20.54	67.81	-0.00	0.0589	10.13	445.6	364.71	0.0659	528.1	9.505	19.02	10.68	1.49
	106.36	20.54	67.81	-0.00	0.0589	10.12	445.3	364.45	0.0659	533.7	9.607	19.22	10.84	1.49
	107.42	20.53	67.78	0.00	0.0587	10.07	443.1	362.79	0.0668	541.8	9.753	19.52	11.06	1.49
	108.37	20.52	67.81	-0.00	0.0591	10.14	446.3	365.25	0.0661	532.3	9.582	19.17	10.80	1.49
	109.36	20.54	67.81	-0.00	0.0589	10.12	445.5	364.59	0.0660	529.1	9.524	19.05	10.71	1.49
	110.37	20.54	67.78	-0.00	0.0588	10.09	443.8	363.35	0.0663	536.0	9.647	19.31	10.90	1.49
	111.37	20.53	67.81	0.00	0.0585	10.04	441.8	361.53	0.0673	544.3	9.797	19.60	11.13	1.49
	112.35	20.55	67.83	-0.00	0.0585	10.03	441.3	361.10	0.0673	545.5	9.820	19.64	11.17	1.49
	113.35	20.55	67.81	0.00	0.0587	10.06	442.5	362.20	0.0665	540.9	9.736	19.48	11.04	1.49
	114.35	20.55	67.81	-0.00	0.0590	10.12	445.2	364.37	0.0657	528.1	9.505	19.02	10.68	1.49
	115.35	20.57	67.78	0.00	0.0590	10.12	445.1	364.41	0.0650	526.7	9.481	18.98	10.64	1.49
	116.34	20.60	67.81	0.00	0.0589	10.12	445.5	364.68	0.0650	518.8	9.338	18.69	10.41	1.49
	117.36	20.62	67.81	-0.00	0.0589	10.12	445.2	364.42	0.0653	521.7	9.391	18.79	10.50	1.49
	118.42	20.62	67.83	-0.00	0.0588	10.09	444.0	363.35	0.0655	525.3	9.455	18.91	10.60	1.49
	119.36	20.67	67.81	0.00	0.0589	10.11	444.7	364.09	0.0655	525.8	9.464	18.94	10.62	1.49
	120.37	20.64	67.81	-0.00	0.0591	10.16	447.2	366.15	0.0649	517.6	9.318	18.65	10.38	1.49
	121.37	20.62	67.81	-0.00	0.0590	10.15	446.5	365.53	0.0650	519.2	9.346	18.70	10.43	1.49
