Jul 25 2015 at 10:43:41
Frequency: 1.00Hz.
CO2
Zero:  Value:0.95  Date:18 Mar 2005	 at 07:22:33	
Span:  Value:1.00  Date:18 Mar 2005	 at 07:25:09	
H2O
Zero:  Value:0.71  Date:18 Mar 2005	 at 07:52:31	
Span:  Value:0.99  Date:18 Mar 2005	 at 11:44:01	
	Relative Time	Temperature	Pressure	Aux Input	CO2 Absorptance	CO2 mmol/m3	CO2 mg/m3	CO2 umol/mol	H2O Absorptance	H2O mmol/m3	H2O g/m3	H2O mmol/mol	H2O(°C)	Cooler Voltage
	0.38	21.01	67.81	0.00	0.0621	10.81	475.7	389.99	0.0530	391.1	7.040	14.11	6.27	1.57
	1.39	21.01	67.81	-0.00	0.0620	10.82	475.9	390.11	0.0531	392.2	7.060	14.15	6.31	1.57
	2.37	21.01	67.81	-0.00	0.0620	10.81	475.7	389.95	0.0536	392.9	7.073	14.17	6.34	1.57
	3.37	21.01	67.81	0.00	0.0620	10.81	475.5	389.75	0.0538	398.3	7.170	14.37	6.53	1.57
	4.45	21.01	67.81	0.00	0.0618	10.77	473.8	388.42	0.0547	406.8	7.322	14.67	6.84	1.57
	5.40	21.01	67.83	-0.00	0.0619	10.77	474.0	388.36	0.0537	395.5	7.120	14.26	6.43	1.57
	6.38	21.03	67.78	0.00	0.0619	10.78	474.5	389.15	0.0535	390.6	7.031	14.10	6.25	1.57
	7.39	21.01	67.81	-0.00	0.0616	10.74	472.7	387.47	0.0572	412.5	7.424	14.88	7.04	1.57
	8.38	21.01	67.81	0.00	0.0615	10.68	470.1	385.37	0.0571	434.1	7.813	15.66	7.79	1.57
	9.36	21.01	67.81	0.00	0.0613	10.65	468.8	384.28	0.0594	455.8	8.204	16.44	8.51	1.57
	10.39	21.01	67.78	-0.00	0.0612	10.63	467.9	383.71	0.0597	458.1	8.246	16.53	8.58	1.57
	11.36	21.01	67.81	0.00	0.0613	10.64	468.1	383.70	0.0592	453.9	8.171	16.37	8.45	1.57
	12.39	21.03	67.81	-0.00	0.0613	10.64	468.1	383.78	0.0589	450.8	8.115	16.26	8.35	1.57
	13.38	21.01	67.81	0.00	0.0612	10.62	467.4	383.10	0.0582	445.4	8.016	16.06	8.17	1.57
	14.37	21.01	67.81	0.00	0.0613	10.65	468.5	384.03	0.0573	434.6	7.822	15.67	7.81	1.57
	15.46	21.03	67.81	-0.00	0.0612	10.63	467.6	383.32	0.0592	448.8	8.079	16.19	8.28	1.57
	16.38	21.03	67.81	-0.00	0.0611	10.59	465.9	381.89	0.0606	470.8	8.475	16.98	8.99	1.57
	17.38	21.01	67.81	0.00	0.0611	10.60	466.6	382.43	0.0603	463.9	8.349	16.73	8.77	1.57
	18.38	21.04	67.83	-0.00	0.0611	10.59	466.2	382.06	0.0599	462.4	8.323	16.67	8.72	1.57
	19.39	21.01	67.81	-0.00	0.0611	10.60	466.2	382.18	0.0598	460.9	8.297	16.62	8.67	1.57
	20.39	20.99	67.81	-0.00	0.0610	10.59	465.8	381.82	0.0600	461.1	8.300	16.63	8.68	1.57
	21.39	20.99	67.81	-0.00	0.0609	10.56	464.6	380.80	0.0615	478.3	8.609	17.25	9.22	1.57
	22.39	21.01	67.81	0.00	0.0609	10.56	464.5	380.74	0.0613	477.5	8.594	17.22	9.20	1.57
	23.39	20.99	67.81	-0.00	0.0609	10.56	464.5	380.76	0.0607	470.8	8.475	16.98	8.99	1.57
	24.38	21.01	67.81	0.00	0.0609	10.56	464.4	380.71	0.0604	467.6	8.416	16.86	8.89	1.57
	25.37	20.97	67.78	0.00	0.0611	10.58	465.7	381.87	0.0591	456.2	8.212	16.46	8.52	1.57
	26.38	21.03	67.81	0.00	0.0611	10.59	466.1	382.11	0.0593	455.2	8.194	16.42	8.49	1.57
	27.44	21.03	67.81	0.00	0.0610	10.58	465.4	381.51	0.0602	463.3	8.339	16.71	8.75	1.57
	28.38	21.03	67.81	0.00	0.0609	10.55	464.2	380.53	0.0611	475.1	8.552	17.14	9.12	1.57
	29.38	21.03	67.81	0.00	0.0607	10.51	462.5	379.14	0.0623	489.1	8.803	17.64	9.55	1.57
	30.36	21.04	67.78	-0.00	0.0602	10.42	458.5	375.99	0.0669	531.8	9.573	19.19	10.81	1.57
	31.37	21.02	67.81	0.00	0.0602	10.41	457.8	375.31	0.0664	535.4	9.638	19.31	10.91	1.57
	32.37	21.04	67.81	-0.00	0.0600	10.35	455.3	373.27	0.0672	548.6	9.875	19.79	11.28	1.57
	33.38	21.06	67.81	0.00	0.0605	10.45	459.8	377.00	0.0645	514.0	9.252	18.54	10.30	1.57
	34.38	21.04	67.81	-0.00	0.0604	10.46	460.0	377.16	0.0650	515.6	9.280	18.60	10.34	1.57
	35.40	21.06	67.78	-0.00	0.0603	10.44	459.3	376.65	0.0655	522.1	9.399	18.84	10.53	1.57
	36.44	21.06	67.81	0.00	0.0602	10.41	457.9	375.46	0.0659	529.5	9.531	19.10	10.74	1.57
	37.38	21.06	67.78	0.00	0.0603	10.42	458.5	376.05	0.0656	526.4	9.476	19.00	10.66	1.57
	38.38	21.07	67.81	0.00	0.0601	10.39	457.3	374.94	0.0666	533.7	9.607	19.25	10.86	1.57
	39.38	21.08	67.81	0.00	0.0601	10.37	456.4	374.18	0.0669	539.2	9.705	19.45	11.02	1.57
	40.37	21.11	67.81	0.00	0.0598	10.32	454.1	372.38	0.0688	561.3	10.103	20.25	11.62	1.57
	41.37	21.09	67.81	0.00	0.0599	10.35	455.3	373.37	0.0681	552.2	9.940	19.92	11.38	1.57
	42.39	21.09	67.75	-0.00	0.0599	10.34	454.9	373.28	0.0684	557.4	10.032	20.12	11.52	1.57
	43.37	21.09	67.83	0.00	0.0598	10.31	453.8	371.98	0.0696	573.9	10.330	20.70	11.96	1.57
	44.38	21.08	67.81	0.00	0.0598	10.31	453.5	371.83	0.0697	575.8	10.364	20.77	12.01	1.57
	45.38	21.09	67.81	0.00	0.0595	10.24	450.6	369.51	0.0714	595.2	10.713	21.47	12.51	1.57
	46.36	21.09	67.79	0.00	0.0597	10.27	451.9	370.67	0.0702	582.4	10.483	21.02	12.18	1.57
	47.38	21.07	67.81	0.00	0.0594	10.24	450.6	369.43	0.0713	592.5	10.665	21.38	12.44	1.57
	48.38	21.09	67.83	0.00	0.0596	10.26	451.7	370.22	0.0702	583.9	10.510	21.06	12.22	1.57
	49.38	21.09	67.81	0.00	0.0596	10.26	451.4	370.12	0.0701	581.9	10.474	20.99	12.17	1.57
	50.39	21.09	67.81	-0.00	0.0597	10.28	452.2	370.78	0.0696	574.6	10.343	20.73	11.98	1.57
	51.37	21.11	67.81	0.00	0.0597	10.29	452.6	371.11	0.0696	573.8	10.328	20.70	11.96	1.57
	52.45	21.11	67.81	0.00	0.0598	10.31	453.5	371.89	0.0692	569.5	10.251	20.55	11.84	1.57
	53.37	21.11	67.78	0.00	0.0597	10.29	453.0	371.58	0.0688	566.8	10.202	20.46	11.77	1.58
	54.46	21.11	67.81	0.00	0.0597	10.30	453.3	371.74	0.0681	556.6	10.019	20.08	11.50	1.57
	55.37	21.11	67.81	0.00	0.0592	10.23	450.0	368.98	0.0717	585.3	10.535	21.12	12.26	1.57
	56.38	21.11	67.81	0.00	0.0591	10.16	447.2	366.75	0.0726	610.2	10.984	22.02	12.89	1.57
	57.36	21.11	67.78	0.00	0.0592	10.16	447.2	366.80	0.0719	607.2	10.929	21.91	12.82	1.57
	58.38	21.11	67.81	-0.00	0.0593	10.20	448.9	368.09	0.0714	595.1	10.711	21.47	12.51	1.57
	59.37	21.11	67.81	0.00	0.0592	10.20	448.8	367.97	0.0713	594.4	10.699	21.45	12.49	1.58
	60.39	21.11	67.83	-0.00	0.0594	10.21	449.2	368.21	0.0711	594.9	10.708	21.46	12.51	1.57
	61.39	21.09	67.81	0.00	0.0593	10.22	449.6	368.62	0.0712	591.5	10.647	21.34	12.42	1.57
	62.37	21.13	67.81	0.00	0.0591	10.18	447.8	367.21	0.0724	604.4	10.879	21.81	12.75	1.57
	63.38	21.13	67.81	0.00	0.0593	10.16	447.2	366.73	0.0720	610.0	10.979	22.01	12.89	1.57
	64.38	21.13	67.81	-0.00	0.0593	10.21	449.3	368.46	0.0710	592.0	10.655	21.36	12.43	1.57
	65.36	21.13	67.81	0.00	0.0593	10.20	448.7	367.96	0.0711	592.9	10.672	21.39	12.46	1.58
	66.38	21.13	67.81	-0.00	0.0593	10.20	449.0	368.22	0.0710	591.4	10.646	21.34	12.42	1.57
	67.38	21.13	67.81	-0.00	0.0594	10.22	449.7	368.75	0.0709	590.3	10.626	21.30	12.39	1.57
	68.38	21.13	67.81	-0.00	0.0594	10.21	449.4	368.48	0.0711	590.8	10.634	21.32	12.40	1.57
	69.36	21.11	67.81	0.00	0.0592	10.19	448.5	367.81	0.0723	599.1	10.784	21.62	12.62	1.57
	70.37	21.11	67.81	-0.00	0.0590	10.14	446.0	365.75	0.0735	620.9	11.176	22.40	13.16	1.57
	71.37	21.11	67.81	0.00	0.0587	10.08	443.6	363.77	0.0744	635.4	11.437	22.92	13.51	1.58
	72.46	21.11	67.81	0.00	0.0590	10.14	446.3	365.95	0.0733	620.6	11.170	22.39	13.15	1.58
	73.37	21.11	67.81	0.00	0.0590	10.13	445.7	365.45	0.0738	627.1	11.287	22.63	13.31	1.57
	74.40	21.11	67.81	-0.00	0.0588	10.11	444.6	364.59	0.0748	635.4	11.438	22.93	13.52	1.58
	75.38	21.13	67.81	-0.00	0.0585	10.05	442.2	362.58	0.0759	650.3	11.705	23.46	13.87	1.57
	76.38	21.11	67.83	0.00	0.0584	10.01	440.5	361.04	0.0766	659.9	11.877	23.80	14.10	1.58
	77.38	21.11	67.81	-0.00	0.0582	9.99	439.5	360.40	0.0772	668.5	12.033	24.12	14.30	1.58
	78.38	21.13	67.81	0.00	0.0581	9.96	438.4	359.50	0.0779	673.9	12.130	24.32	14.42	1.58
	79.37	21.15	67.83	0.00	0.0578	9.89	435.0	356.62	0.0786	686.4	12.356	24.76	14.71	1.57
	80.36	21.13	67.81	0.00	0.0580	9.93	436.9	358.28	0.0777	675.7	12.162	24.38	14.46	1.57
	81.45	21.15	67.81	-0.00	0.0583	9.98	439.2	360.23	0.0768	665.2	11.973	24.00	14.22	1.58
	82.37	21.14	67.81	-0.00	0.0584	10.00	440.1	360.90	0.0763	659.3	11.867	23.79	14.08	1.58
	83.38	21.14	67.81	-0.00	0.0585	10.03	441.3	361.90	0.0761	657.6	11.837	23.73	14.04	1.58
	84.38	21.14	67.81	-0.00	0.0583	10.00	440.1	360.94	0.0769	662.0	11.916	23.89	14.15	1.58
	85.39	21.18	67.81	-0.00	0.0581	9.95	437.7	359.01	0.0779	672.6	12.108	24.27	14.40	1.57
	86.38	21.20	67.81	0.00	0.0581	9.93	437.0	358.46	0.0776	675.0	12.150	24.36	14.45	1.58
	87.39	21.18	67.81	-0.00	0.0580	9.90	435.5	357.21	0.0785	687.3	12.371	24.80	14.73	1.58
	88.38	21.20	67.76	0.00	0.0580	9.91	436.1	357.98	0.0784	685.0	12.331	24.74	14.68	1.58
	89.37	21.19	67.81	0.00	0.0581	9.93	436.8	358.32	0.0778	679.5	12.230	24.52	14.55	1.58
	90.37	21.20	67.78	0.00	0.0585	10.02	440.8	361.72	0.0776	676.0	12.168	24.41	14.47	1.58
	91.37	21.18	67.81	-0.00	0.0583	9.98	439.3	360.29	0.0769	667.8	12.021	24.10	14.29	1.58
	92.38	21.18	67.81	-0.00	0.0582	9.97	438.7	359.80	0.0772	669.1	12.044	24.15	14.31	1.58
	93.37	21.18	67.81	0.00	0.0582	9.97	438.5	359.62	0.0769	667.5	12.015	24.09	14.28	1.58
	94.36	21.18	67.81	0.00	0.0585	10.02	440.9	361.58	0.0763	658.5	11.854	23.76	14.07	1.58
	95.38	21.18	67.81	-0.00	0.0585	10.02	440.7	361.45	0.0763	657.7	11.839	23.73	14.05	1.58
	96.36	21.18	67.81	0.00	0.0586	10.03	441.4	362.02	0.0763	657.9	11.843	23.74	14.06	1.58
	97.38	21.18	67.81	-0.00	0.0584	10.00	440.1	360.99	0.0769	665.9	11.986	24.03	14.24	1.58
	98.38	21.18	67.81	0.00	0.0583	9.97	438.9	359.95	0.0774	670.3	12.065	24.19	14.34	1.58
	99.37	21.16	67.81	0.00	0.0582	9.96	438.2	359.36	0.0792	694.8	12.506	25.07	14.90	1.58
	100.37	21.18	67.81	0.00	0.0582	9.97	438.8	359.88	0.0785	686.2	12.352	24.76	14.71	1.58
	101.39	21.18	67.81	-0.00	0.0582	9.96	438.1	359.29	0.0787	693.4	12.481	25.02	14.87	1.58
	102.37	21.19	67.83	0.00	0.0582	9.95	437.9	359.05	0.0782	683.6	12.305	24.66	14.65	1.58
	103.38	21.19	67.81	-0.00	0.0581	9.94	437.6	358.91	0.0783	684.6	12.323	24.71	14.67	1.58
	104.36	21.20	67.81	0.00	0.0580	9.95	437.7	359.04	0.0785	679.4	12.229	24.52	14.55	1.58
	105.36	21.18	67.83	0.00	0.0580	9.92	436.5	357.87	0.0789	692.6	12.467	24.99	14.85	1.58
	106.39	21.21	67.81	-0.00	0.0580	9.93	436.7	358.26	0.0796	699.9	12.598	25.26	15.01	1.58
	107.45	21.21	67.75	0.00	0.0581	9.93	436.9	358.70	0.0804	712.3	12.822	25.73	15.29	1.58
	108.39	21.21	67.81	-0.00	0.0578	9.88	434.8	356.67	0.0807	717.2	12.909	25.88	15.39	1.58
	109.37	21.23	67.81	-0.00	0.0578	9.88	434.5	356.47	0.0810	718.3	12.929	25.93	15.42	1.58
	110.37	21.21	67.81	0.00	0.0579	9.88	434.6	356.51	0.0813	722.3	13.002	26.07	15.50	1.58
	111.37	21.21	67.81	0.00	0.0578	9.87	434.1	356.11	0.0809	721.3	12.984	26.03	15.48	1.58
	112.37	21.19	67.81	0.00	0.0580	9.91	436.0	357.66	0.0804	713.9	12.850	25.77	15.32	1.58
	113.37	21.21	67.81	0.00	0.0581	9.93	437.1	358.52	0.0804	710.8	12.795	25.66	15.25	1.58
	114.36	21.23	67.81	0.00	0.0579	9.91	435.9	357.56	0.0808	718.1	12.925	25.92	15.41	1.58
	115.36	21.21	67.81	0.00	0.0578	9.88	434.8	356.68	0.0804	712.9	12.832	25.73	15.30	1.58
	116.36	21.23	67.81	0.00	0.0578	9.86	433.8	355.88	0.0808	719.3	12.948	25.96	15.44	1.58
	117.36	21.23	67.81	0.00	0.0577	9.85	433.6	355.72	0.0809	719.9	12.958	25.99	15.45	1.58
	118.37	21.23	67.81	-0.00	0.0578	9.87	434.3	356.25	0.0808	717.9	12.923	25.91	15.41	1.58
	119.37	21.24	67.81	-0.00	0.0579	9.89	435.1	356.95	0.0805	714.8	12.866	25.80	15.34	1.58
	120.37	21.21	67.81	0.00	0.0580	9.91	435.9	357.57	0.0805	713.3	12.840	25.75	15.31	1.58
	121.37	21.25	67.81	0.00	0.0578	9.88	434.9	356.74	0.0811	721.9	12.994	26.06	15.50	1.58
	122.40	21.25	67.81	-0.00	0.0576	9.81	431.7	354.14	0.0818	729.6	13.132	26.34	15.66	1.58
	123.37	21.26	67.81	0.00	0.0576	9.83	432.6	354.90	0.0820	734.0	13.212	26.50	15.76	1.58
	124.38	21.26	67.81	0.00	0.0576	9.83	432.5	354.81	0.0820	735.9	13.245	26.56	15.80	1.58
