Jul 25 2015 at 13:11:02
Frequency: 1.00Hz.
CO2
Zero:  Value:0.95  Date:18 Mar 2005	 at 07:22:33	
Span:  Value:1.00  Date:18 Mar 2005	 at 07:25:09	
H2O
Zero:  Value:0.71  Date:18 Mar 2005	 at 07:52:31	
Span:  Value:0.99  Date:18 Mar 2005	 at 11:44:01	
	Relative Time	Temperature	Pressure	Aux Input	CO2 Absorptance	CO2 mmol/m3	CO2 mg/m3	CO2 umol/mol	H2O Absorptance	H2O mmol/m3	H2O g/m3	H2O mmol/mol	H2O(°C)	Cooler Voltage
	0.34	26.97	70.25	-0.00	0.0630	10.99	483.6	390.36	0.0654	498.6	8.975	17.71	10.14	1.59
	1.34	26.97	70.26	-0.00	0.0630	10.93	480.9	388.16	0.0660	519.6	9.353	18.45	10.76	1.59
	2.33	26.98	70.28	0.00	0.0632	10.89	479.1	386.58	0.0659	527.8	9.500	18.74	10.99	1.60
	3.40	26.98	70.28	0.00	0.0632	10.96	482.3	389.20	0.0663	525.3	9.455	18.65	10.92	1.59
	4.34	26.94	70.30	0.00	0.0630	10.94	481.3	388.21	0.0665	529.5	9.530	18.79	11.04	1.59
	5.32	26.94	70.28	0.00	0.0629	10.91	480.1	387.35	0.0674	534.5	9.621	18.98	11.18	1.59
	6.33	26.98	70.28	0.00	0.0627	10.84	477.2	385.05	0.0674	539.3	9.707	19.15	11.32	1.59
	7.33	26.98	70.28	0.00	0.0630	10.90	479.5	386.90	0.0669	532.9	9.592	18.92	11.14	1.60
	8.35	26.97	70.28	-0.00	0.0630	10.90	479.8	387.12	0.0669	532.8	9.590	18.92	11.14	1.60
	9.33	26.96	70.28	-0.00	0.0631	10.93	480.7	387.88	0.0668	532.1	9.578	18.89	11.12	1.59
	10.33	26.98	70.28	0.00	0.0630	10.93	480.9	388.02	0.0669	531.9	9.574	18.89	11.11	1.59
	11.33	26.96	70.30	0.00	0.0630	10.94	481.4	388.26	0.0677	543.4	9.782	19.29	11.43	1.59
	12.34	26.98	70.28	0.00	0.0630	10.91	480.2	387.51	0.0671	535.5	9.638	19.01	11.21	1.60
	13.34	26.99	70.28	-0.00	0.0629	10.90	479.5	386.92	0.0672	534.7	9.624	18.98	11.19	1.60
	14.34	27.00	70.28	0.00	0.0628	10.90	479.5	386.95	0.0691	555.7	10.002	19.73	11.77	1.60
	15.34	27.02	70.28	0.00	0.0629	10.88	478.7	386.30	0.0680	546.0	9.828	19.39	11.51	1.60
	16.33	26.99	70.28	0.00	0.0628	10.88	478.7	386.32	0.0684	548.9	9.881	19.49	11.59	1.59
	17.35	27.03	70.28	-0.00	0.0629	10.88	478.6	386.28	0.0684	547.6	9.857	19.45	11.55	1.59
	18.33	27.03	70.31	-0.00	0.0628	10.87	478.4	385.95	0.0683	550.2	9.903	19.53	11.62	1.60
	19.34	27.03	70.26	-0.00	0.0628	10.88	478.9	386.60	0.0704	562.5	10.124	19.98	11.96	1.60
	20.33	27.03	70.28	0.00	0.0628	10.87	478.5	386.18	0.0725	597.5	10.756	21.22	12.88	1.60
	21.34	27.03	70.28	-0.00	0.0629	10.88	478.8	386.41	0.0719	602.4	10.842	21.39	13.00	1.60
	22.32	27.02	70.28	0.00	0.0629	10.89	479.0	386.53	0.0704	573.6	10.325	20.37	12.26	1.59
	23.35	27.03	70.28	-0.00	0.0630	10.91	480.2	387.54	0.0719	589.2	10.605	20.92	12.66	1.59
	24.34	27.03	70.28	0.00	0.0629	10.91	479.9	387.30	0.0718	590.4	10.628	20.97	12.70	1.60
	25.34	27.05	70.26	-0.00	0.0630	10.91	480.0	387.54	0.0706	576.5	10.376	20.48	12.33	1.60
	26.41	27.05	70.28	0.00	0.0629	10.89	479.2	386.74	0.0706	576.4	10.375	20.47	12.33	1.60
	27.35	27.07	70.28	0.00	0.0629	10.90	479.8	387.27	0.0741	606.1	10.910	21.53	13.10	1.60
	28.34	27.07	70.28	-0.00	0.0628	10.87	478.3	386.04	0.0780	658.9	11.860	23.40	14.38	1.60
	29.33	27.10	70.28	0.00	0.0629	10.89	479.1	386.79	0.0759	641.4	11.545	22.78	13.97	1.60
	30.33	27.09	70.28	0.00	0.0629	10.88	478.7	386.40	0.0759	645.5	11.619	22.93	14.07	1.60
	31.34	27.09	70.28	-0.00	0.0629	10.88	478.9	386.59	0.0739	615.3	11.076	21.86	13.33	1.60
	32.40	27.11	70.28	0.00	0.0627	10.87	478.2	386.00	0.0743	624.0	11.232	22.16	13.55	1.60
	33.34	27.13	70.28	0.00	0.0625	10.81	475.7	384.04	0.0710	590.1	10.621	20.96	12.69	1.60
	34.32	27.08	70.23	0.00	0.0626	10.82	476.0	384.47	0.0730	612.9	11.033	21.79	13.27	1.60
	35.35	27.13	70.26	-0.00	0.0625	10.81	475.4	383.96	0.0756	631.1	11.359	22.42	13.72	1.60
	36.32	27.13	70.28	0.00	0.0625	10.81	475.4	383.82	0.0738	622.0	11.196	22.09	13.50	1.60
	37.33	27.13	70.26	0.00	0.0625	10.81	475.5	384.01	0.0724	599.9	10.798	21.32	12.94	1.60
	38.39	27.14	70.28	0.00	0.0625	10.81	475.5	383.88	0.0728	601.0	10.817	21.35	12.97	1.60
	39.34	27.15	70.28	0.00	0.0625	10.81	475.4	383.85	0.0732	607.9	10.943	21.60	13.15	1.60
	40.33	27.15	70.26	0.00	0.0626	10.82	476.1	384.50	0.0732	608.1	10.946	21.61	13.15	1.60
	41.34	27.16	70.28	0.00	0.0625	10.80	475.4	383.84	0.0734	608.9	10.960	21.63	13.17	1.60
	42.32	27.16	70.28	0.00	0.0626	10.82	476.0	384.31	0.0738	614.6	11.062	21.83	13.32	1.60
	43.34	27.16	70.28	0.00	0.0626	10.83	476.3	384.60	0.0744	621.6	11.190	22.08	13.49	1.60
	44.32	27.18	70.26	0.00	0.0626	10.83	476.7	385.07	0.0737	615.0	11.071	21.86	13.33	1.60
	45.33	27.16	70.28	-0.00	0.0624	10.79	474.6	383.24	0.0734	610.4	10.988	21.69	13.21	1.60
	46.35	27.16	70.28	-0.00	0.0624	10.80	475.1	383.63	0.0742	617.5	11.114	21.94	13.39	1.60
	47.35	27.18	70.31	-0.00	0.0624	10.79	474.7	383.17	0.0768	648.7	11.677	23.04	14.15	1.60
	48.33	27.18	70.28	0.00	0.0623	10.77	473.9	382.65	0.0758	641.6	11.548	22.79	13.98	1.60
	49.34	27.18	70.26	0.00	0.0624	10.78	474.2	383.05	0.0751	631.2	11.362	22.43	13.73	1.60
	50.36	27.20	70.28	-0.00	0.0624	10.79	474.7	383.30	0.0752	632.7	11.389	22.48	13.76	1.60
	51.34	27.18	70.28	0.00	0.0624	10.77	474.1	382.81	0.0762	643.7	11.587	22.87	14.03	1.60
	52.34	27.20	70.28	-0.00	0.0623	10.76	473.6	382.48	0.0767	652.4	11.742	23.18	14.24	1.60
	53.40	27.20	70.28	0.00	0.0623	10.77	473.7	382.51	0.0767	652.6	11.748	23.19	14.24	1.60
	54.34	27.20	70.30	0.00	0.0623	10.76	473.4	382.13	0.0768	651.3	11.724	23.13	14.21	1.60
	55.33	27.20	70.28	-0.00	0.0623	10.76	473.3	382.22	0.0757	641.8	11.552	22.80	13.98	1.60
	56.33	27.22	70.28	0.00	0.0624	10.77	473.9	382.68	0.0753	632.9	11.392	22.49	13.77	1.60
	57.35	27.20	70.28	0.00	0.0623	10.77	473.9	382.70	0.0759	641.4	11.544	22.79	13.97	1.60
	58.34	27.22	70.28	-0.00	0.0624	10.77	474.1	382.85	0.0746	627.6	11.298	22.30	13.64	1.60
	59.34	27.22	70.30	-0.00	0.0624	10.77	474.0	382.68	0.0746	621.1	11.179	22.06	13.48	1.60
	60.34	27.22	70.28	-0.00	0.0624	10.78	474.1	382.89	0.0746	625.5	11.260	22.23	13.59	1.60
	61.32	27.22	70.28	0.00	0.0624	10.78	474.2	382.97	0.0747	626.5	11.277	22.26	13.61	1.60
	62.40	27.22	70.28	0.00	0.0624	10.77	473.7	382.57	0.0763	640.6	11.531	22.76	13.96	1.60
	63.32	27.20	70.28	0.00	0.0625	10.80	475.0	383.58	0.0780	666.0	11.989	23.67	14.56	1.60
	64.41	27.20	70.25	0.00	0.0624	10.77	474.1	382.99	0.0779	668.2	12.028	23.75	14.61	1.60
	65.32	27.20	70.28	0.00	0.0623	10.76	473.5	382.35	0.0780	669.8	12.056	23.80	14.64	1.60
	66.41	27.22	70.30	-0.00	0.0623	10.75	472.9	381.75	0.0779	666.3	11.993	23.67	14.56	1.60
	67.33	27.20	70.28	-0.00	0.0623	10.76	473.5	382.37	0.0782	671.7	12.091	23.87	14.69	1.60
	68.34	27.20	70.31	-0.00	0.0622	10.74	472.6	381.49	0.0787	677.0	12.186	24.05	14.81	1.60
	69.31	27.20	70.28	0.00	0.0622	10.74	472.4	381.46	0.0790	680.9	12.255	24.19	14.90	1.60
	70.34	27.18	70.25	-0.00	0.0622	10.73	472.0	381.22	0.0788	676.7	12.181	24.05	14.80	1.60
	71.34	27.20	70.28	-0.00	0.0622	10.73	472.3	381.37	0.0792	686.4	12.355	24.39	15.02	1.60
	72.34	27.22	70.28	0.00	0.0623	10.75	472.9	381.93	0.0788	680.0	12.239	24.16	14.88	1.60
	73.34	27.22	70.26	-0.00	0.0623	10.76	473.6	382.59	0.0784	673.0	12.113	23.92	14.72	1.60
	74.33	27.22	70.28	-0.00	0.0623	10.75	473.0	381.95	0.0777	665.9	11.986	23.66	14.55	1.60
	75.33	27.24	70.28	-0.00	0.0623	10.76	473.6	382.52	0.0779	665.7	11.983	23.66	14.55	1.60
	76.33	27.23	70.31	0.00	0.0622	10.75	473.1	381.94	0.0774	658.9	11.861	23.41	14.39	1.60
	77.31	27.23	70.28	0.00	0.0621	10.71	471.2	380.57	0.0794	683.8	12.309	24.30	14.97	1.60
	78.41	27.24	70.28	0.00	0.0621	10.72	471.8	381.07	0.0797	688.9	12.400	24.48	15.08	1.61
	79.34	27.24	70.28	-0.00	0.0621	10.70	470.9	380.29	0.0790	682.1	12.277	24.24	14.93	1.60
	80.34	27.26	70.28	0.00	0.0622	10.73	472.3	381.44	0.0795	686.3	12.354	24.39	15.03	1.60
	81.32	27.25	70.25	0.00	0.0621	10.73	471.9	381.28	0.0796	687.8	12.381	24.45	15.06	1.60
	82.32	27.25	70.25	0.00	0.0620	10.69	470.2	379.89	0.0800	694.2	12.495	24.68	15.20	1.60
	83.32	27.23	70.31	0.00	0.0620	10.69	470.2	379.59	0.0794	688.3	12.389	24.45	15.07	1.61
	84.33	27.25	70.28	-0.00	0.0619	10.68	469.8	379.43	0.0790	681.4	12.264	24.21	14.91	1.61
	85.35	27.26	70.28	-0.00	0.0621	10.70	470.7	380.19	0.0790	681.4	12.266	24.22	14.91	1.60
	86.35	27.27	70.28	-0.00	0.0619	10.68	469.9	379.58	0.0791	683.1	12.296	24.28	14.95	1.60
	87.33	27.29	70.30	0.00	0.0621	10.71	471.1	380.41	0.0791	682.5	12.285	24.25	14.94	1.60
	88.33	27.27	70.25	0.00	0.0618	10.66	468.9	378.87	0.0785	676.6	12.179	24.05	14.80	1.60
	89.33	27.27	70.28	0.00	0.0619	10.66	468.9	378.71	0.0816	715.4	12.877	25.42	15.67	1.61
	90.34	27.27	70.28	-0.00	0.0618	10.65	468.5	378.45	0.0815	709.8	12.777	25.23	15.55	1.61
	91.32	27.23	70.25	-0.00	0.0619	10.67	469.5	379.33	0.0824	728.7	13.117	25.90	15.96	1.60
	92.34	27.26	70.30	-0.00	0.0617	10.64	468.0	377.88	0.0824	725.4	13.056	25.77	15.89	1.60
	93.32	27.26	70.26	0.00	0.0619	10.66	469.2	379.10	0.0825	727.0	13.086	25.84	15.92	1.60
	94.32	27.25	70.26	0.00	0.0619	10.68	469.8	379.56	0.0797	688.4	12.391	24.47	15.07	1.60
	95.32	27.28	70.31	0.00	0.0618	10.66	469.0	378.69	0.0816	726.0	13.068	25.79	15.90	1.61
	96.33	27.26	70.28	-0.00	0.0619	10.68	469.8	379.45	0.0806	702.2	12.639	24.95	15.38	1.61
	97.34	27.24	70.28	0.00	0.0619	10.67	469.3	379.03	0.0803	699.1	12.584	24.84	15.31	1.60
	98.34	27.25	70.28	-0.00	0.0619	10.67	469.6	379.30	0.0811	709.4	12.770	25.21	15.54	1.60
	99.34	27.26	70.28	0.00	0.0618	10.65	468.5	378.42	0.0819	715.1	12.871	25.41	15.66	1.61
	100.34	27.26	70.28	-0.00	0.0620	10.68	470.0	379.61	0.0819	719.7	12.954	25.57	15.76	1.60
	101.34	27.26	70.28	-0.00	0.0619	10.68	470.0	379.63	0.0812	712.4	12.823	25.32	15.61	1.61
	102.32	27.27	70.28	0.00	0.0620	10.68	470.0	379.60	0.0813	711.2	12.801	25.27	15.58	1.61
	103.33	27.25	70.25	0.00	0.0620	10.69	470.6	380.19	0.0804	703.7	12.666	25.01	15.41	1.61
	104.32	27.32	70.28	0.00	0.0619	10.67	469.5	379.26	0.0789	681.3	12.264	24.22	14.92	1.61
	105.33	27.29	70.28	0.00	0.0621	10.70	470.9	380.38	0.0790	680.5	12.248	24.19	14.89	1.61
	106.33	27.29	70.28	0.00	0.0619	10.66	469.0	378.88	0.0812	709.4	12.768	25.21	15.54	1.61
	107.33	27.31	70.28	0.00	0.0620	10.70	470.8	380.35	0.0806	704.0	12.673	25.02	15.42	1.61
	108.33	27.31	70.26	0.00	0.0620	10.70	470.9	380.51	0.0799	687.8	12.381	24.46	15.06	1.61
	109.33	27.31	70.28	-0.00	0.0617	10.63	467.6	377.72	0.0828	729.1	13.124	25.91	15.97	1.61
	110.32	27.31	70.23	0.00	0.0618	10.66	469.2	379.32	0.0831	735.3	13.236	26.16	16.10	1.61
	111.32	27.33	70.26	-0.00	0.0619	10.64	468.2	378.40	0.0836	742.3	13.362	26.40	16.25	1.61
	112.34	27.31	70.28	0.00	0.0618	10.65	468.7	378.61	0.0842	747.4	13.454	26.57	16.36	1.61
	113.32	27.29	70.28	0.00	0.0616	10.61	466.8	377.07	0.0844	750.8	13.515	26.68	16.43	1.61
	114.35	27.33	70.28	-0.00	0.0616	10.61	466.9	377.16	0.0848	757.7	13.638	26.93	16.58	1.61
	115.32	27.33	70.28	0.00	0.0616	10.59	466.2	376.59	0.0845	757.6	13.637	26.93	16.57	1.61
	116.33	27.33	70.25	0.00	0.0616	10.60	466.4	376.91	0.0836	745.7	13.422	26.52	16.32	1.61
	117.33	27.33	70.28	-0.00	0.0618	10.63	467.9	378.01	0.0832	736.9	13.265	26.20	16.14	1.61
	118.33	27.33	70.28	0.00	0.0619	10.66	469.1	378.92	0.0840	748.1	13.465	26.59	16.37	1.61
	119.33	27.33	70.33	0.00	0.0618	10.64	468.3	378.03	0.0837	743.4	13.382	26.41	16.28	1.61
	120.34	27.39	70.31	0.00	0.0618	10.65	468.5	378.42	0.0836	743.6	13.385	26.43	16.28	1.61
	121.32	27.35	70.28	0.00	0.0619	10.66	469.2	379.11	0.0834	736.4	13.256	26.18	16.13	1.61
	122.34	27.33	70.28	0.00	0.0618	10.64	468.2	378.26	0.0831	738.2	13.287	26.24	16.17	1.61
