Jul 27 2015 at 10:48:41
Frequency: 1.00Hz.
CO2
Zero:  Value:0.95  Date:18 Mar 2005	 at 07:22:33	
Span:  Value:1.00  Date:18 Mar 2005	 at 07:25:09	
H2O
Zero:  Value:0.71  Date:18 Mar 2005	 at 07:52:31	
Span:  Value:0.99  Date:18 Mar 2005	 at 11:44:01	
	Relative Time	Temperature	Pressure	Aux Input	CO2 Absorptance	CO2 mmol/m3	CO2 mg/m3	CO2 umol/mol	H2O Absorptance	H2O mmol/m3	H2O g/m3	H2O mmol/mol	H2O(°C)	Cooler Voltage
	0.53	28.24	69.60	0.00	0.0626	10.86	477.9	391.02	0.0628	490.4	8.827	17.65	9.95	1.46
	1.51	28.24	69.60	0.00	0.0626	10.87	478.3	391.37	0.0634	495.3	8.915	17.83	10.10	1.47
	2.53	28.23	69.60	0.00	0.0626	10.86	477.6	390.79	0.0637	498.1	8.966	17.93	10.19	1.47
	3.51	28.23	69.61	0.00	0.0626	10.86	478.0	391.10	0.0637	498.4	8.971	17.94	10.20	1.47
	4.54	28.20	69.60	-0.00	0.0626	10.84	476.9	390.11	0.0638	498.3	8.970	17.94	10.19	1.46
	5.52	28.19	69.63	-0.00	0.0626	10.85	477.4	390.40	0.0638	498.6	8.974	17.94	10.20	1.47
	6.54	28.19	69.63	-0.00	0.0626	10.85	477.5	390.51	0.0643	504.8	9.086	18.16	10.38	1.46
	7.52	28.17	69.60	-0.00	0.0625	10.85	477.2	390.39	0.0644	504.1	9.073	18.14	10.36	1.47
	8.52	28.17	69.60	-0.00	0.0624	10.83	476.5	389.77	0.0650	509.7	9.175	18.35	10.53	1.47
	9.53	28.15	69.60	-0.00	0.0624	10.81	475.7	389.12	0.0650	519.1	9.344	18.68	10.80	1.46
	10.52	28.15	69.60	-0.00	0.0623	10.80	475.3	388.80	0.0659	521.9	9.395	18.78	10.88	1.46
	11.53	28.15	69.63	-0.00	0.0622	10.77	473.9	387.50	0.0665	529.6	9.533	19.05	11.10	1.47
	12.57	28.15	69.58	0.00	0.0620	10.73	472.3	386.47	0.0670	535.7	9.643	19.29	11.28	1.46
	13.51	28.15	69.65	0.00	0.0621	10.75	473.2	386.77	0.0666	529.9	9.539	19.06	11.11	1.47
	14.52	28.13	69.61	0.00	0.0618	10.68	470.0	384.39	0.0676	541.9	9.754	19.50	11.45	1.47
	15.52	28.15	69.63	-0.00	0.0618	10.67	469.6	383.99	0.0675	543.0	9.773	19.53	11.48	1.46
	16.52	28.15	69.61	0.00	0.0616	10.65	468.5	383.23	0.0680	547.4	9.853	19.70	11.60	1.46
	17.58	28.13	69.60	0.00	0.0616	10.65	468.4	383.11	0.0682	550.6	9.911	19.82	11.69	1.47
	18.52	28.11	69.63	0.00	0.0616	10.66	469.0	383.44	0.0685	546.8	9.842	19.67	11.58	1.46
	19.52	28.13	69.61	0.00	0.0616	10.61	466.7	381.69	0.0681	557.3	10.031	20.05	11.87	1.47
	20.53	28.17	69.60	-0.00	0.0613	10.56	464.8	380.19	0.0694	562.9	10.131	20.26	12.03	1.47
	21.53	28.13	69.61	-0.00	0.0611	10.55	464.2	379.68	0.0698	566.3	10.194	20.38	12.12	1.47
	22.59	28.13	69.60	0.00	0.0610	10.50	462.2	378.02	0.0701	573.5	10.323	20.64	12.31	1.47
	23.51	28.15	69.60	0.00	0.0609	10.49	461.5	377.49	0.0702	573.0	10.314	20.62	12.30	1.47
	24.51	28.13	69.66	-0.00	0.0606	10.44	459.3	375.37	0.0710	580.1	10.443	20.86	12.48	1.47
	25.52	28.13	69.60	-0.00	0.0607	10.45	459.7	376.00	0.0705	575.2	10.353	20.70	12.35	1.47
	26.50	28.13	69.60	0.00	0.0606	10.41	458.1	374.71	0.0709	582.6	10.488	20.97	12.55	1.47
	27.52	28.13	69.58	0.00	0.0606	10.41	458.2	374.89	0.0707	582.0	10.476	20.95	12.53	1.47
	28.52	28.15	69.63	0.00	0.0606	10.40	457.5	374.11	0.0707	580.2	10.444	20.87	12.49	1.47
	29.52	28.13	69.60	0.00	0.0604	10.37	456.4	373.32	0.0711	583.4	10.501	20.99	12.57	1.47
	30.53	28.17	69.63	-0.00	0.0604	10.38	456.7	373.44	0.0710	582.0	10.476	20.94	12.54	1.47
	31.53	28.17	69.63	-0.00	0.0602	10.32	454.2	371.38	0.0715	588.2	10.587	21.16	12.70	1.47
	32.53	28.10	69.60	-0.00	0.0599	10.27	451.9	369.56	0.0721	594.7	10.704	21.40	12.86	1.47
	33.51	28.13	69.58	0.00	0.0597	10.22	449.5	367.73	0.0725	602.0	10.836	21.67	13.05	1.47
	34.52	28.15	69.66	-0.00	0.0596	10.21	449.1	367.04	0.0728	602.1	10.838	21.65	13.05	1.47
	35.52	28.15	69.61	-0.00	0.0593	10.11	445.0	363.96	0.0738	620.7	11.173	22.34	13.52	1.47
	36.52	28.13	69.60	0.00	0.0591	10.09	444.0	363.16	0.0740	620.8	11.175	22.34	13.52	1.47
	37.52	28.14	69.61	-0.00	0.0592	10.09	443.8	362.98	0.0740	621.6	11.188	22.37	13.54	1.47
	38.55	28.15	69.60	0.00	0.0589	10.05	442.3	361.78	0.0742	624.6	11.243	22.48	13.62	1.47
	39.53	28.15	69.60	-0.00	0.0589	10.02	440.7	360.51	0.0743	626.8	11.283	22.56	13.67	1.47
	40.53	28.17	69.60	0.00	0.0588	10.01	440.6	360.40	0.0746	628.0	11.303	22.60	13.70	1.47
	41.53	28.17	69.61	0.00	0.0587	9.98	439.3	359.34	0.0747	631.2	11.361	22.72	13.78	1.47
	42.51	28.17	69.60	0.00	0.0585	9.96	438.4	358.62	0.0750	630.0	11.341	22.68	13.75	1.47
	43.52	28.19	69.60	-0.00	0.0584	9.93	437.1	357.56	0.0754	635.8	11.444	22.88	13.89	1.47
	44.52	28.19	69.63	0.00	0.0582	9.88	434.7	355.47	0.0755	640.4	11.527	23.04	14.00	1.47
	45.52	28.19	69.60	-0.00	0.0582	9.87	434.3	355.29	0.0758	644.7	11.605	23.21	14.11	1.47
	46.52	28.18	69.60	-0.00	0.0578	9.80	431.2	352.77	0.0766	651.8	11.732	23.46	14.27	1.47
	47.50	28.17	69.60	0.00	0.0575	9.74	428.4	350.42	0.0772	662.6	11.926	23.85	14.53	1.47
	48.56	28.15	69.58	-0.00	0.0574	9.74	428.4	350.57	0.0775	666.5	11.998	24.00	14.62	1.47
	49.52	28.15	69.61	-0.00	0.0579	9.78	430.5	352.14	0.0761	655.8	11.804	23.60	14.37	1.47
	50.50	28.15	69.60	0.00	0.0571	9.65	424.4	347.16	0.0779	672.9	12.111	24.22	14.76	1.47
	51.60	28.15	69.60	-0.00	0.0570	9.64	424.0	346.82	0.0781	673.8	12.129	24.25	14.79	1.47
	52.53	28.15	69.60	-0.00	0.0570	9.64	424.0	346.85	0.0781	675.4	12.157	24.31	14.82	1.47
	53.51	28.15	69.60	0.00	0.0568	9.61	422.8	345.87	0.0788	679.4	12.229	24.45	14.91	1.47
	54.59	28.15	69.61	0.00	0.0566	9.56	420.7	344.13	0.0791	686.6	12.359	24.71	15.08	1.47
	55.52	28.15	69.63	-0.00	0.0565	9.53	419.4	342.94	0.0792	688.6	12.395	24.78	15.12	1.47
	56.50	28.15	69.60	0.00	0.0566	9.54	419.7	343.31	0.0793	690.2	12.423	24.84	15.16	1.47
	57.50	28.15	69.60	0.00	0.0567	9.57	421.1	344.43	0.0791	686.1	12.350	24.69	15.07	1.47
	58.52	28.13	69.60	-0.00	0.0566	9.54	420.0	343.49	0.0793	688.8	12.399	24.79	15.13	1.47
	59.50	28.13	69.60	0.00	0.0564	9.52	418.9	342.58	0.0798	691.9	12.454	24.90	15.20	1.47
	60.53	28.11	69.60	-0.00	0.0561	9.47	416.7	340.81	0.0804	702.8	12.651	25.29	15.44	1.47
	61.51	28.13	69.61	0.00	0.0560	9.40	413.6	338.24	0.0809	715.0	12.870	25.73	15.71	1.47
	62.52	28.13	69.63	-0.00	0.0561	9.42	414.3	338.73	0.0808	714.4	12.859	25.70	15.69	1.47
	63.51	28.13	69.60	0.00	0.0555	9.36	411.8	336.84	0.0821	719.9	12.958	25.91	15.81	1.47
	64.51	28.13	69.60	-0.00	0.0560	9.42	414.7	339.16	0.0813	709.3	12.767	25.53	15.58	1.47
	65.50	28.13	69.60	0.00	0.0559	9.39	413.1	337.87	0.0812	714.8	12.867	25.72	15.70	1.47
	66.52	28.15	69.63	0.00	0.0559	9.40	413.5	338.14	0.0812	717.0	12.907	25.80	15.75	1.47
	67.50	28.13	69.61	0.00	0.0561	9.42	414.4	338.96	0.0808	709.8	12.777	25.54	15.59	1.47
	68.53	28.15	69.60	-0.00	0.0560	9.40	413.8	338.47	0.0815	715.6	12.881	25.76	15.72	1.47
	69.51	28.16	69.58	-0.00	0.0555	9.35	411.5	336.72	0.0824	726.8	13.083	26.17	15.97	1.47
	70.51	28.13	69.63	0.00	0.0555	9.34	410.9	335.98	0.0828	733.5	13.203	26.39	16.11	1.47
	71.51	28.13	69.63	-0.00	0.0551	9.17	403.7	330.05	0.0834	751.3	13.523	27.03	16.48	1.47
	72.49	28.13	69.61	0.00	0.0549	9.17	403.5	329.98	0.0839	751.4	13.526	27.04	16.49	1.47
	73.52	28.13	69.60	0.00	0.0551	9.23	406.0	332.11	0.0837	745.9	13.426	26.84	16.37	1.47
	74.52	28.15	69.60	-0.00	0.0549	9.18	403.9	330.38	0.0843	755.4	13.598	27.19	16.57	1.47
	75.52	28.13	69.58	-0.00	0.0549	9.23	406.1	332.25	0.0845	756.4	13.614	27.23	16.59	1.47
	76.53	28.13	69.58	0.00	0.0548	9.19	404.2	330.73	0.0854	760.0	13.680	27.36	16.67	1.47
	77.53	28.15	69.60	0.00	0.0548	9.23	406.3	332.30	0.0852	767.3	13.811	27.61	16.82	1.47
	78.53	28.15	69.61	0.00	0.0553	9.21	405.3	331.53	0.0844	775.1	13.951	27.89	16.98	1.47
	79.59	28.18	69.60	0.00	0.0569	9.56	420.8	344.24	0.0859	774.4	13.940	27.87	16.96	1.47
	80.54	28.17	69.58	-0.00	0.0562	9.55	420.3	343.96	0.0882	811.2	14.602	29.21	17.70	1.47
	81.54	28.19	69.60	-0.00	0.0556	9.32	410.0	335.40	0.0880	793.1	14.275	28.55	17.34	1.47
	82.51	28.21	69.60	-0.00	0.0553	9.33	410.3	335.68	0.0880	808.3	14.549	29.10	17.64	1.47
	83.52	28.17	69.55	-0.00	0.0547	9.17	403.4	330.21	0.0868	797.1	14.348	28.71	17.42	1.48
	84.51	28.17	69.61	0.00	0.0559	9.27	408.0	333.72	0.0880	799.0	14.382	28.76	17.46	1.47
	85.50	28.17	69.60	0.00	0.0554	9.10	400.4	327.53	0.0888	810.4	14.587	29.17	17.68	1.48
	86.53	28.13	69.61	0.00	0.0553	9.30	409.3	334.77	0.0871	799.4	14.389	28.77	17.46	1.48
	87.52	28.17	69.58	0.00	0.0556	9.24	406.5	332.67	0.0876	797.0	14.346	28.70	17.42	1.47
	88.55	28.19	69.60	0.00	0.0548	9.19	404.2	330.70	0.0871	797.7	14.359	28.71	17.43	1.48
	89.53	28.15	69.60	0.00	0.0543	9.01	396.6	324.38	0.0863	772.0	13.896	27.78	16.91	1.48
	90.51	28.15	69.60	0.00	0.0538	8.99	395.5	323.50	0.0858	778.3	14.010	28.01	17.04	1.48
	91.53	28.15	69.61	0.00	0.0537	8.95	393.6	321.97	0.0861	779.8	14.036	28.06	17.07	1.48
	92.51	28.15	69.60	0.00	0.0536	8.92	392.7	321.18	0.0856	776.2	13.971	27.93	17.00	1.48
	93.51	28.15	69.60	0.00	0.0536	8.92	392.7	321.21	0.0859	774.7	13.944	27.88	16.97	1.48
	94.52	28.15	69.60	-0.00	0.0537	8.92	392.3	320.89	0.0856	778.2	14.008	28.01	17.04	1.48
	95.58	28.15	69.61	0.00	0.0536	8.93	393.0	321.45	0.0863	784.2	14.116	28.22	17.16	1.48
	96.52	28.17	69.60	-0.00	0.0537	8.96	394.1	322.41	0.0861	780.5	14.049	28.09	17.09	1.48
	97.52	28.13	69.60	-0.00	0.0536	8.92	392.4	320.90	0.0864	785.0	14.129	28.25	17.17	1.48
	98.52	28.15	69.60	0.00	0.0534	8.88	390.8	319.64	0.0866	788.6	14.196	28.38	17.25	1.48
	99.54	28.15	69.60	-0.00	0.0532	8.85	389.6	318.65	0.0871	793.5	14.284	28.56	17.35	1.48
	100.62	28.15	69.61	0.00	0.0531	8.84	389.1	318.26	0.0870	792.4	14.263	28.52	17.32	1.48
	101.53	28.15	69.60	0.00	0.0533	8.86	389.8	318.86	0.0867	787.6	14.176	28.35	17.23	1.48
	102.52	28.13	69.58	0.00	0.0534	8.89	391.0	319.87	0.0863	781.1	14.060	28.12	17.10	1.48
	103.55	28.13	69.60	0.00	0.0531	8.82	388.3	317.55	0.0870	792.4	14.262	28.51	17.32	1.48
	104.50	28.15	69.60	0.00	0.0531	8.85	389.5	318.60	0.0867	780.6	14.051	28.09	17.09	1.48
	105.50	28.13	69.58	0.00	0.0528	8.77	386.0	315.80	0.0876	799.4	14.389	28.78	17.46	1.48
	106.52	28.14	69.57	-0.00	0.0524	8.71	383.2	313.54	0.0880	806.8	14.522	29.05	17.61	1.48
	107.50	28.13	69.60	0.00	0.0523	8.66	380.9	311.54	0.0882	810.4	14.587	29.16	17.68	1.48
	108.51	28.13	69.60	0.00	0.0522	8.65	380.4	311.17	0.0879	805.5	14.498	28.99	17.58	1.48
	109.50	28.13	69.58	0.00	0.0521	8.63	379.6	310.63	0.0880	806.9	14.523	29.05	17.61	1.48
	110.53	28.15	69.60	0.00	0.0518	8.58	377.4	308.70	0.0883	810.0	14.581	29.15	17.67	1.48
	111.53	28.15	69.63	-0.00	0.0515	8.52	374.8	306.48	0.0883	811.2	14.602	29.19	17.70	1.48
	112.52	28.13	69.63	0.00	0.0515	8.51	374.3	306.05	0.0882	811.3	14.604	29.19	17.70	1.48
	113.52	28.13	69.61	-0.00	0.0517	8.51	374.5	306.32	0.0878	808.3	14.550	29.09	17.64	1.48
	114.52	28.13	69.60	-0.00	0.0515	8.50	373.9	305.84	0.0878	805.4	14.496	28.98	17.58	1.48
	115.52	28.16	69.60	-0.00	0.0515	8.53	375.5	307.16	0.0877	797.6	14.356	28.71	17.43	1.48
	116.50	28.11	69.60	0.00	0.0517	8.59	378.1	309.23	0.0869	779.9	14.038	28.06	17.07	1.48
	117.52	28.11	69.61	-0.00	0.0513	8.47	372.8	304.92	0.0878	804.7	14.485	28.96	17.57	1.48
	118.50	28.11	69.63	0.00	0.0513	8.46	372.1	304.21	0.0877	800.5	14.409	28.80	17.48	1.48
	119.51	28.11	69.61	0.00	0.0511	8.43	370.7	303.18	0.0878	804.7	14.485	28.96	17.57	1.48
	120.51	28.13	69.60	-0.00	0.0510	8.42	370.3	302.91	0.0878	803.6	14.464	28.92	17.55	1.48
	121.49	28.13	69.61	0.00	0.0508	8.35	367.5	300.59	0.0881	808.8	14.559	29.11	17.65	1.48
	122.51	28.13	69.60	0.00	0.0508	8.37	368.2	301.12	0.0879	801.8	14.433	28.86	17.51	1.48
	123.51	28.13	69.60	-0.00	0.0506	8.33	366.5	299.77	0.0880	807.4	14.533	29.06	17.62	1.48
	124.52	28.13	69.60	-0.00	0.0506	8.32	366.1	299.46	0.0877	804.9	14.489	28.97	17.57	1.48
