Jul 27 2015 at 11:00:16
Frequency: 1.00Hz.
CO2
Zero:  Value:0.95  Date:18 Mar 2005	 at 07:22:33	
Span:  Value:1.00  Date:18 Mar 2005	 at 07:25:09	
H2O
Zero:  Value:0.71  Date:18 Mar 2005	 at 07:52:31	
Span:  Value:0.99  Date:18 Mar 2005	 at 11:44:01	
	Relative Time	Temperature	Pressure	Aux Input	CO2 Absorptance	CO2 mmol/m3	CO2 mg/m3	CO2 umol/mol	H2O Absorptance	H2O mmol/m3	H2O g/m3	H2O mmol/mol	H2O(°C)	Cooler Voltage
	0.22	28.97	69.57	0.00	0.0604	10.38	456.8	374.82	0.0824	732.7	13.189	26.45	16.13	1.56
	1.22	28.97	69.58	0.00	0.0604	10.37	456.2	374.32	0.0825	731.6	13.169	26.41	16.11	1.55
	2.23	29.01	69.58	-0.00	0.0603	10.34	455.0	373.36	0.0823	731.3	13.163	26.40	16.11	1.56
	3.21	28.98	69.55	0.00	0.0609	10.48	461.1	378.51	0.0809	712.0	12.815	25.71	15.69	1.56
	4.21	28.97	69.58	0.00	0.0601	10.34	454.7	373.11	0.0818	721.1	12.979	26.03	15.88	1.55
	5.21	28.99	69.58	0.00	0.0601	10.31	453.6	372.20	0.0819	722.3	13.002	26.08	15.91	1.56
	6.29	28.96	69.58	0.00	0.0602	10.31	453.8	372.31	0.0822	725.2	13.054	26.18	15.97	1.56
	7.21	28.99	69.61	0.00	0.0601	10.31	453.6	372.04	0.0821	727.6	13.097	26.26	16.03	1.56
	8.22	28.98	69.58	0.00	0.0601	10.27	452.0	370.87	0.0820	723.3	13.020	26.11	15.93	1.56
	9.23	29.02	69.58	-0.00	0.0601	10.31	453.6	372.20	0.0819	725.3	13.055	26.19	15.98	1.56
	10.23	29.00	69.55	-0.00	0.0601	10.32	454.1	372.79	0.0824	728.2	13.107	26.30	16.04	1.56
	11.23	29.00	69.58	-0.00	0.0602	10.33	454.6	373.02	0.0820	725.5	13.059	26.19	15.98	1.56
	12.23	28.99	69.58	-0.00	0.0601	10.31	453.5	372.10	0.0817	723.0	13.015	26.10	15.93	1.56
	13.23	29.00	69.58	-0.00	0.0605	10.43	459.0	376.63	0.0813	717.7	12.919	25.91	15.81	1.56
	14.23	29.00	69.60	-0.00	0.0602	10.36	455.9	373.98	0.0811	717.5	12.914	25.90	15.81	1.56
	15.23	29.00	69.58	0.00	0.0609	10.47	460.9	378.17	0.0813	715.4	12.878	25.83	15.76	1.56
	16.21	29.00	69.58	0.00	0.0609	10.49	461.4	378.65	0.0801	702.9	12.652	25.38	15.49	1.56
	17.21	29.02	69.58	0.00	0.0607	10.45	460.0	377.50	0.0803	699.2	12.586	25.25	15.41	1.56
	18.22	29.00	69.58	0.00	0.0607	10.44	459.4	376.99	0.0804	708.5	12.754	25.58	15.61	1.56
	19.22	29.02	69.58	-0.00	0.0609	10.51	462.4	379.45	0.0803	700.0	12.600	25.27	15.42	1.56
	20.22	29.04	69.60	0.00	0.0614	10.56	464.6	381.20	0.0790	686.0	12.348	24.76	15.11	1.56
	21.22	29.02	69.58	0.00	0.0614	10.57	465.1	381.65	0.0793	686.9	12.364	24.80	15.13	1.56
	22.23	29.02	69.61	-0.00	0.0612	10.55	464.0	380.66	0.0788	683.2	12.297	24.66	15.04	1.56
	23.21	29.00	69.58	-0.00	0.0611	10.52	463.0	379.91	0.0792	686.3	12.354	24.78	15.11	1.56
	24.23	29.00	69.58	-0.00	0.0610	10.50	462.1	379.18	0.0788	683.2	12.297	24.67	15.04	1.56
	25.23	29.02	69.55	-0.00	0.0609	10.48	461.0	378.46	0.0790	684.2	12.315	24.71	15.07	1.56
	26.24	29.02	69.58	-0.00	0.0611	10.51	462.4	379.43	0.0786	681.1	12.260	24.59	15.00	1.56
	27.22	29.04	69.55	0.00	0.0612	10.54	463.6	380.64	0.0783	677.5	12.195	24.47	14.92	1.56
	28.22	29.04	69.52	0.00	0.0614	10.59	465.8	382.54	0.0779	669.8	12.056	24.20	14.74	1.56
	29.22	29.02	69.60	0.00	0.0615	10.61	466.8	382.94	0.0780	672.1	12.097	24.26	14.79	1.56
	30.23	29.02	69.58	0.00	0.0614	10.59	465.8	382.24	0.0779	670.6	12.070	24.21	14.76	1.56
	31.22	29.04	69.55	0.00	0.0613	10.56	464.7	381.48	0.0780	670.2	12.063	24.21	14.75	1.56
	32.23	29.02	69.58	-0.00	0.0614	10.60	466.2	382.57	0.0789	681.2	12.262	24.60	15.00	1.56
	33.24	29.04	69.58	0.00	0.0615	10.61	467.0	383.22	0.0784	676.2	12.171	24.42	14.89	1.56
	34.21	29.05	69.58	0.00	0.0614	10.57	465.0	381.61	0.0781	670.6	12.071	24.22	14.76	1.56
	35.29	29.07	69.52	0.00	0.0616	10.63	467.8	384.20	0.0781	671.0	12.079	24.25	14.77	1.56
	36.22	29.04	69.58	-0.00	0.0617	10.66	468.9	384.84	0.0778	668.8	12.038	24.15	14.72	1.56
	37.22	29.04	69.58	-0.00	0.0617	10.64	468.1	384.18	0.0785	677.1	12.187	24.45	14.91	1.56
	38.20	29.04	69.58	0.00	0.0618	10.66	469.1	385.02	0.0787	681.8	12.272	24.62	15.01	1.56
	39.23	29.04	69.58	-0.00	0.0618	10.67	469.4	385.23	0.0782	674.9	12.148	24.37	14.86	1.56
	40.22	29.04	69.58	0.00	0.0619	10.71	471.1	386.66	0.0778	668.2	12.027	24.13	14.70	1.56
	41.23	29.06	69.58	0.00	0.0618	10.69	470.4	386.09	0.0778	668.6	12.035	24.14	14.71	1.57
	42.21	29.06	69.58	-0.00	0.0618	10.69	470.3	385.97	0.0783	675.4	12.157	24.39	14.87	1.57
	43.21	29.06	69.58	0.00	0.0619	10.69	470.2	385.91	0.0788	679.4	12.230	24.54	14.96	1.56
	44.30	29.06	69.58	-0.00	0.0622	10.77	474.0	389.05	0.0794	690.1	12.422	24.92	15.20	1.56
	45.21	29.04	69.60	0.00	0.0622	10.76	473.5	388.50	0.0793	687.7	12.379	24.82	15.15	1.56
	46.22	29.06	69.58	0.00	0.0624	10.80	475.4	390.19	0.0796	691.9	12.453	24.98	15.24	1.56
	47.25	29.06	69.58	-0.00	0.0623	10.80	475.1	389.90	0.0797	694.8	12.506	25.09	15.31	1.56
	48.23	29.08	69.58	-0.00	0.0625	10.81	475.4	390.23	0.0791	687.3	12.371	24.82	15.14	1.56
	49.22	29.06	69.55	0.00	0.0627	10.84	476.9	391.55	0.0784	676.7	12.180	24.44	14.90	1.57
	50.22	29.06	69.58	-0.00	0.0633	10.97	482.8	396.26	0.0802	695.6	12.520	25.12	15.33	1.57
	51.23	29.06	69.58	-0.00	0.0632	11.00	483.9	397.13	0.0795	691.4	12.444	24.97	15.23	1.57
	52.23	29.08	69.60	0.00	0.0632	11.00	483.8	396.96	0.0791	689.3	12.408	24.89	15.19	1.57
	53.23	29.10	69.60	-0.00	0.0627	10.90	479.7	393.65	0.0798	693.1	12.475	25.02	15.27	1.57
	54.21	29.06	69.58	0.00	0.0628	10.91	480.1	393.99	0.0799	697.2	12.549	25.17	15.36	1.57
	55.21	29.06	69.58	0.00	0.0632	10.99	483.4	396.74	0.0797	692.9	12.472	25.02	15.27	1.57
	56.30	29.08	69.57	-0.00	0.0636	11.09	487.8	400.36	0.0797	695.3	12.515	25.11	15.32	1.57
	57.22	29.13	69.58	0.00	0.0636	11.07	487.1	399.83	0.0793	687.7	12.379	24.84	15.15	1.57
	58.22	29.08	69.58	0.00	0.0634	11.05	486.2	399.05	0.0797	694.4	12.499	25.08	15.30	1.57
	59.23	29.07	69.58	0.00	0.0632	10.98	483.2	396.57	0.0799	697.7	12.558	25.19	15.37	1.57
	60.22	29.09	69.58	0.00	0.0633	10.99	483.4	396.76	0.0799	695.1	12.512	25.11	15.32	1.57
	61.22	29.10	69.58	-0.00	0.0634	11.02	485.0	398.14	0.0797	696.1	12.531	25.14	15.34	1.57
	62.29	29.10	69.58	-0.00	0.0639	11.15	490.7	402.81	0.0804	701.2	12.622	25.33	15.45	1.57
	63.21	29.09	69.58	0.00	0.0637	11.13	489.6	401.85	0.0805	705.4	12.698	25.48	15.55	1.57
	64.21	29.09	69.55	0.00	0.0632	11.02	485.0	398.24	0.0803	701.0	12.618	25.33	15.45	1.57
	65.22	29.10	69.60	-0.00	0.0633	10.97	482.7	396.09	0.0802	701.9	12.634	25.34	15.47	1.57
	66.22	29.10	69.58	-0.00	0.0638	11.14	490.1	402.27	0.0806	710.3	12.785	25.65	15.66	1.57
	67.20	29.10	69.58	0.00	0.0640	11.17	491.5	403.47	0.0812	711.7	12.810	25.70	15.69	1.57
	68.30	29.12	69.60	-0.00	0.0638	11.12	489.4	401.61	0.0815	717.4	12.912	25.90	15.81	1.57
	69.23	29.12	69.58	0.00	0.0641	11.16	491.0	403.03	0.0816	716.8	12.902	25.89	15.80	1.57
	70.23	29.11	69.60	-0.00	0.0642	11.24	494.5	405.76	0.0823	729.5	13.131	26.34	16.07	1.57
	71.29	29.11	69.58	0.00	0.0636	11.07	487.2	399.95	0.0815	716.9	12.905	25.89	15.80	1.57
	72.21	29.14	69.55	0.00	0.0641	11.14	490.4	402.72	0.0820	719.9	12.958	26.01	15.87	1.57
	73.23	29.12	69.58	0.00	0.0641	11.23	494.0	405.48	0.0816	724.8	13.046	26.18	15.97	1.57
	74.21	29.11	69.53	0.00	0.0640	11.17	491.7	403.89	0.0814	715.6	12.881	25.87	15.77	1.57
	75.22	29.13	69.58	0.00	0.0638	11.14	490.1	402.33	0.0817	721.8	12.992	26.07	15.91	1.57
	76.21	29.16	69.60	0.00	0.0635	11.06	486.7	399.48	0.0814	717.6	12.916	25.91	15.82	1.57
	77.24	29.16	69.58	-0.00	0.0640	11.14	490.4	402.58	0.0818	722.1	12.998	26.09	15.92	1.57
	78.22	29.13	69.58	-0.00	0.0643	11.27	495.8	406.99	0.0825	733.6	13.206	26.50	16.16	1.57
	79.22	29.13	69.58	-0.00	0.0638	11.13	489.9	402.17	0.0814	719.4	12.949	25.99	15.86	1.57
	80.22	29.16	69.60	0.00	0.0632	11.01	484.6	397.70	0.0818	720.4	12.967	26.01	15.88	1.57
	81.20	29.14	69.58	0.00	0.0641	11.18	491.7	403.67	0.0829	736.3	13.253	26.60	16.22	1.57
	82.23	29.14	69.58	-0.00	0.0643	11.27	495.9	407.12	0.0824	733.3	13.199	26.49	16.15	1.58
	83.27	29.14	69.58	0.00	0.0640	11.17	491.4	403.44	0.0823	727.4	13.093	26.27	16.03	1.57
	84.21	29.20	69.58	0.00	0.0644	11.26	495.6	406.92	0.0829	735.1	13.232	26.56	16.20	1.57
	85.22	29.14	69.58	-0.00	0.0644	11.22	493.6	405.25	0.0833	738.5	13.293	26.68	16.27	1.57
	86.22	29.16	69.58	0.00	0.0647	11.37	500.2	410.66	0.0839	756.2	13.612	27.32	16.64	1.58
	87.22	29.15	69.58	0.00	0.0641	11.19	492.3	404.20	0.0825	730.3	13.145	26.38	16.09	1.58
	88.23	29.16	69.58	0.00	0.0638	11.12	489.5	401.84	0.0826	733.5	13.202	26.50	16.16	1.58
	89.22	29.16	69.58	0.00	0.0636	11.08	487.7	400.39	0.0828	736.3	13.254	26.60	16.22	1.58
	90.23	29.18	69.58	-0.00	0.0637	11.11	489.0	401.48	0.0825	731.1	13.160	26.41	16.11	1.58
	91.23	29.13	69.58	0.00	0.0635	11.08	487.5	400.21	0.0827	733.9	13.210	26.51	16.17	1.58
	92.31	29.18	69.58	0.00	0.0640	11.15	490.7	402.87	0.0833	742.8	13.371	26.83	16.36	1.58
	93.21	29.18	69.58	0.00	0.0642	11.18	492.0	403.95	0.0834	740.1	13.322	26.74	16.30	1.58
	94.21	29.15	69.58	0.00	0.0642	11.20	492.9	404.67	0.0833	742.3	13.361	26.81	16.35	1.58
	95.28	29.18	69.60	0.00	0.0639	11.19	492.6	404.26	0.0828	739.3	13.308	26.70	16.29	1.58
	96.21	29.17	69.60	0.00	0.0637	11.13	489.8	402.03	0.0822	728.6	13.116	26.31	16.06	1.58
	97.22	29.20	69.60	0.00	0.0637	11.09	487.8	400.41	0.0823	727.9	13.101	26.29	16.04	1.58
	98.20	29.15	69.60	0.00	0.0638	11.13	489.7	401.93	0.0826	731.1	13.159	26.40	16.11	1.58
	99.22	29.19	69.58	0.00	0.0637	11.12	489.1	401.56	0.0830	736.7	13.260	26.61	16.23	1.58
	100.20	29.18	69.55	0.00	0.0639	11.15	490.4	402.78	0.0833	742.7	13.369	26.84	16.36	1.58
	101.21	29.17	69.58	0.00	0.0636	11.10	488.6	401.12	0.0829	738.3	13.290	26.67	16.27	1.58
	102.23	29.18	69.58	-0.00	0.0637	11.09	488.1	400.74	0.0831	737.9	13.281	26.66	16.25	1.58
	103.23	29.20	69.55	-0.00	0.0637	11.08	487.5	400.43	0.0831	738.0	13.284	26.67	16.26	1.58
	104.24	29.20	69.58	-0.00	0.0640	11.18	491.8	403.84	0.0839	751.0	13.519	27.13	16.53	1.58
	105.22	29.18	69.63	-0.00	0.0637	11.11	488.9	401.08	0.0835	745.8	13.425	26.92	16.42	1.58
	106.22	29.20	69.58	0.00	0.0634	11.05	486.0	399.09	0.0831	739.3	13.307	26.71	16.29	1.58
	107.28	29.20	69.58	0.00	0.0636	11.07	487.1	399.98	0.0836	744.4	13.399	26.89	16.39	1.58
	108.22	29.19	69.58	0.00	0.0635	11.06	486.7	399.62	0.0836	747.1	13.448	26.99	16.45	1.58
	109.29	29.20	69.58	-0.00	0.0635	11.07	486.9	399.81	0.0831	742.3	13.362	26.82	16.35	1.58
	110.20	29.20	69.58	0.00	0.0634	11.03	485.4	398.55	0.0830	734.3	13.217	26.53	16.18	1.58
	111.21	29.20	69.58	0.00	0.0634	11.04	485.6	398.75	0.0831	740.2	13.323	26.74	16.31	1.58
	112.21	29.24	69.60	0.00	0.0631	10.98	482.9	396.44	0.0829	734.4	13.218	26.53	16.18	1.59
	113.21	29.21	69.60	0.00	0.0635	11.05	486.2	399.08	0.0838	749.5	13.491	27.07	16.50	1.58
	114.22	29.20	69.58	-0.00	0.0633	11.01	484.6	397.89	0.0838	748.5	13.474	27.04	16.48	1.58
	115.21	29.21	69.58	0.00	0.0631	10.98	482.9	396.57	0.0840	752.3	13.541	27.18	16.56	1.58
	116.24	29.24	69.58	-0.00	0.0634	11.01	484.5	397.87	0.0832	741.8	13.353	26.80	16.34	1.58
	117.20	29.21	69.58	0.00	0.0636	11.08	487.6	400.38	0.0839	752.3	13.542	27.18	16.56	1.59
	118.22	29.23	69.58	0.00	0.0634	11.02	485.0	398.29	0.0837	745.3	13.416	26.93	16.42	1.58
	119.28	29.26	69.58	0.00	0.0635	11.04	485.9	399.07	0.0841	751.6	13.528	27.16	16.55	1.59
	120.21	29.23	69.55	0.00	0.0637	11.11	488.7	401.43	0.0849	765.1	13.772	27.66	16.83	1.59
	121.21	29.25	69.56	0.00	0.0637	11.10	488.2	401.09	0.0842	754.1	13.574	27.26	16.60	1.59
	122.23	29.26	69.60	-0.00	0.0640	11.15	490.7	402.83	0.0854	767.2	13.809	27.71	16.87	1.58
