Jul 27 2015 at 10:10:05
Frequency: 1.00Hz.
CO2
Zero:  Value:0.95  Date:18 Mar 2005	 at 07:22:33	
Span:  Value:1.00  Date:18 Mar 2005	 at 07:25:09	
H2O
Zero:  Value:0.71  Date:18 Mar 2005	 at 07:52:31	
Span:  Value:0.99  Date:18 Mar 2005	 at 11:44:01	
	Relative Time	Temperature	Pressure	Aux Input	CO2 Absorptance	CO2 mmol/m3	CO2 mg/m3	CO2 umol/mol	H2O Absorptance	H2O mmol/m3	H2O g/m3	H2O mmol/mol	H2O(°C)	Cooler Voltage
	0.30	25.61	69.58	-0.00	0.0657	11.56	508.7	412.72	0.0702	574.2	10.335	20.50	12.20	1.56
	1.26	25.63	69.58	0.00	0.0656	11.55	508.2	412.39	0.0699	571.0	10.277	20.38	12.11	1.56
	2.28	25.65	69.58	0.00	0.0649	11.38	500.8	406.41	0.0692	561.8	10.113	20.06	11.87	1.56
	3.26	25.65	69.58	0.00	0.0647	11.33	498.5	404.47	0.0690	560.2	10.084	20.00	11.83	1.56
	4.29	25.63	69.58	-0.00	0.0647	11.33	498.5	404.47	0.0692	560.7	10.093	20.02	11.84	1.56
	5.27	25.65	69.58	0.00	0.0648	11.33	498.6	404.62	0.0691	561.3	10.103	20.04	11.86	1.56
	6.27	25.65	69.58	0.00	0.0647	11.33	498.7	404.65	0.0689	560.7	10.093	20.02	11.84	1.56
	7.27	25.65	69.58	0.00	0.0646	11.33	498.5	404.53	0.0687	557.9	10.042	19.92	11.77	1.56
	8.27	25.63	69.61	0.00	0.0646	11.33	498.6	404.44	0.0688	558.6	10.055	19.94	11.78	1.56
	9.35	25.65	69.58	-0.00	0.0646	11.31	497.8	403.97	0.0690	559.0	10.063	19.96	11.80	1.56
	10.28	25.65	69.58	-0.00	0.0645	11.30	497.2	403.43	0.0690	559.2	10.066	19.97	11.80	1.56
	11.26	25.65	69.58	0.00	0.0645	11.29	496.7	403.07	0.0692	561.7	10.111	20.06	11.87	1.56
	12.26	25.65	69.58	0.00	0.0644	11.25	494.9	401.56	0.0693	563.0	10.134	20.10	11.90	1.56
	13.26	25.67	69.58	0.00	0.0644	11.25	495.0	401.73	0.0692	562.7	10.128	20.09	11.89	1.56
	14.27	25.65	69.58	-0.00	0.0643	11.25	494.9	401.62	0.0692	562.0	10.116	20.07	11.88	1.56
	15.29	25.65	69.55	-0.00	0.0643	11.25	494.8	401.65	0.0692	562.2	10.120	20.08	11.88	1.56
	16.27	25.67	69.58	0.00	0.0644	11.26	495.5	402.09	0.0692	562.5	10.125	20.08	11.89	1.56
	17.29	25.67	69.58	-0.00	0.0644	11.25	495.0	401.71	0.0694	564.2	10.155	20.14	11.94	1.56
	18.28	25.67	69.55	-0.00	0.0644	11.25	495.1	401.94	0.0695	565.8	10.185	20.21	11.98	1.56
	19.28	25.67	69.58	0.00	0.0643	11.24	494.7	401.45	0.0697	568.2	10.228	20.29	12.04	1.56
	20.28	25.65	69.58	-0.00	0.0644	11.25	495.1	401.80	0.0698	569.0	10.242	20.32	12.06	1.56
	21.26	25.65	69.58	0.00	0.0644	11.26	495.2	401.86	0.0700	573.2	10.318	20.47	12.18	1.56
	22.26	25.63	69.58	0.00	0.0643	11.24	494.6	401.28	0.0701	572.3	10.302	20.43	12.15	1.56
	23.28	25.65	69.58	0.00	0.0642	11.23	494.1	400.90	0.0703	575.4	10.357	20.54	12.23	1.56
	24.27	25.63	69.58	-0.00	0.0643	11.24	494.5	401.23	0.0705	577.9	10.403	20.63	12.30	1.56
	25.27	25.67	69.60	-0.00	0.0644	11.25	495.1	401.63	0.0709	581.5	10.466	20.75	12.39	1.56
	26.27	25.65	69.60	-0.00	0.0643	11.25	495.1	401.59	0.0707	579.8	10.436	20.69	12.35	1.56
	27.29	25.65	69.58	0.00	0.0644	11.25	495.1	401.74	0.0708	580.2	10.444	20.72	12.36	1.56
	28.28	25.65	69.58	-0.00	0.0643	11.24	494.6	401.39	0.0709	581.9	10.474	20.78	12.40	1.56
	29.30	25.67	69.58	-0.00	0.0642	11.22	493.8	400.69	0.0710	584.0	10.512	20.85	12.46	1.56
	30.28	25.66	69.58	-0.00	0.0642	11.21	493.4	400.38	0.0713	586.8	10.563	20.95	12.53	1.56
	31.28	25.67	69.58	0.00	0.0641	11.20	492.9	399.97	0.0715	589.2	10.605	21.04	12.59	1.56
	32.34	25.66	69.58	0.00	0.0642	11.20	492.9	400.02	0.0718	591.9	10.653	21.13	12.66	1.56
	33.26	25.69	69.55	0.00	0.0641	11.20	492.6	399.91	0.0722	597.9	10.763	21.36	12.82	1.56
	34.27	25.71	69.58	0.00	0.0640	11.17	491.5	398.94	0.0722	599.0	10.782	21.39	12.85	1.56
	35.26	25.68	69.58	0.00	0.0639	11.16	491.0	398.51	0.0724	600.8	10.815	21.45	12.89	1.56
	36.27	25.68	69.58	0.00	0.0639	11.15	490.6	398.11	0.0726	603.9	10.869	21.56	12.97	1.56
	37.27	25.70	69.58	-0.00	0.0640	11.16	491.2	398.66	0.0722	599.2	10.786	21.40	12.85	1.56
	38.28	25.70	69.60	-0.00	0.0640	11.17	491.3	398.65	0.0724	600.3	10.805	21.43	12.88	1.56
	39.27	25.70	69.58	-0.00	0.0640	11.16	491.2	398.69	0.0725	602.3	10.842	21.51	12.93	1.56
	40.28	25.68	69.58	-0.00	0.0638	11.14	490.1	397.75	0.0730	607.3	10.932	21.69	13.06	1.56
	41.26	25.70	69.58	0.00	0.0638	11.13	489.8	397.52	0.0730	608.3	10.950	21.72	13.08	1.56
	42.29	25.69	69.58	-0.00	0.0638	11.13	489.5	397.30	0.0731	609.9	10.978	21.78	13.12	1.56
	43.27	25.72	69.58	-0.00	0.0638	11.13	489.6	397.34	0.0729	606.7	10.921	21.67	13.05	1.56
	44.26	25.70	69.58	0.00	0.0637	11.11	488.7	396.63	0.0737	617.3	11.111	22.04	13.31	1.56
	45.27	25.73	69.58	-0.00	0.0637	11.10	488.5	396.47	0.0738	616.9	11.104	22.03	13.30	1.56
	46.26	25.72	69.58	-0.00	0.0637	11.11	488.9	396.77	0.0739	619.9	11.158	22.14	13.37	1.56
	47.27	25.72	69.58	0.00	0.0637	11.09	488.1	396.17	0.0738	619.1	11.144	22.11	13.36	1.56
	48.27	25.72	69.58	-0.00	0.0637	11.10	488.3	396.33	0.0745	625.1	11.252	22.32	13.50	1.56
	49.28	25.76	69.58	-0.00	0.0636	11.10	488.3	396.42	0.0744	622.9	11.212	22.25	13.45	1.56
	50.26	25.74	69.58	-0.00	0.0634	11.05	486.3	394.77	0.0748	629.9	11.339	22.50	13.62	1.56
	51.28	25.74	69.63	-0.00	0.0635	11.05	486.4	394.48	0.0747	628.7	11.317	22.44	13.59	1.56
	52.28	25.75	69.58	-0.00	0.0635	11.06	486.7	395.09	0.0746	628.8	11.319	22.46	13.60	1.56
	53.27	25.76	69.60	0.00	0.0633	11.02	485.1	393.61	0.0749	631.7	11.371	22.56	13.67	1.56
	54.27	25.75	69.55	-0.00	0.0633	11.02	484.8	393.68	0.0751	633.9	11.410	22.65	13.72	1.56
	55.27	25.76	69.58	0.00	0.0633	11.01	484.4	393.22	0.0754	636.3	11.453	22.73	13.78	1.56
	56.27	25.76	69.58	0.00	0.0632	11.00	483.9	392.85	0.0754	638.7	11.496	22.81	13.84	1.56
	57.28	25.76	69.60	-0.00	0.0633	11.01	484.4	393.08	0.0754	639.0	11.502	22.81	13.84	1.56
	58.27	25.78	69.58	0.00	0.0633	11.01	484.5	393.36	0.0754	639.0	11.501	22.82	13.84	1.56
	59.27	25.80	69.58	0.00	0.0633	11.01	484.6	393.43	0.0755	639.2	11.505	22.83	13.85	1.56
	60.28	25.78	69.60	-0.00	0.0634	11.03	485.2	393.72	0.0755	638.9	11.500	22.81	13.84	1.56
	61.29	25.76	69.60	-0.00	0.0634	11.02	485.0	393.59	0.0756	639.7	11.514	22.84	13.86	1.56
	62.28	25.75	69.58	-0.00	0.0634	11.03	485.4	394.02	0.0756	639.3	11.507	22.83	13.85	1.56
	63.26	25.78	69.58	-0.00	0.0633	10.99	483.8	392.73	0.0762	648.4	11.670	23.16	14.07	1.56
	64.26	25.80	69.58	-0.00	0.0632	10.99	483.4	392.50	0.0761	647.4	11.652	23.13	14.04	1.56
	65.27	25.78	69.58	-0.00	0.0632	10.99	483.6	392.63	0.0761	648.0	11.664	23.15	14.06	1.56
	66.27	25.77	69.58	0.00	0.0632	10.99	483.7	392.68	0.0763	648.9	11.680	23.18	14.08	1.56
	67.27	25.78	69.65	0.00	0.0632	10.98	483.3	391.92	0.0764	650.3	11.706	23.21	14.11	1.56
	68.27	25.79	69.58	0.00	0.0630	10.96	482.3	391.53	0.0767	651.5	11.726	23.27	14.14	1.56
	69.27	25.79	69.60	0.00	0.0630	10.94	481.3	390.59	0.0768	655.9	11.805	23.42	14.25	1.56
	70.26	25.78	69.58	0.00	0.0629	10.93	480.8	390.28	0.0769	657.7	11.839	23.49	14.29	1.56
	71.26	25.81	69.58	0.00	0.0630	10.93	481.0	390.51	0.0769	658.7	11.857	23.53	14.31	1.56
	72.28	25.79	69.58	-0.00	0.0631	10.94	481.5	390.93	0.0769	657.2	11.830	23.48	14.28	1.56
	73.27	25.79	69.55	-0.00	0.0630	10.95	481.7	391.24	0.0769	657.1	11.828	23.48	14.28	1.56
	74.27	25.81	69.58	0.00	0.0630	10.94	481.3	390.72	0.0772	659.7	11.874	23.57	14.34	1.56
	75.27	25.79	69.60	-0.00	0.0630	10.94	481.2	390.53	0.0771	660.3	11.885	23.58	14.35	1.56
	76.28	25.81	69.58	-0.00	0.0629	10.92	480.5	390.12	0.0773	662.6	11.927	23.67	14.41	1.56
	77.27	25.81	69.58	0.00	0.0630	10.93	480.7	390.30	0.0775	665.1	11.972	23.76	14.46	1.56
	78.27	25.82	69.58	0.00	0.0629	10.92	480.4	390.01	0.0777	667.6	12.017	23.85	14.52	1.56
	79.28	25.81	69.58	-0.00	0.0628	10.90	479.6	389.41	0.0780	671.6	12.088	23.99	14.61	1.56
	80.28	25.81	69.52	0.00	0.0627	10.88	478.8	389.02	0.0781	671.9	12.094	24.02	14.62	1.56
	81.34	25.81	69.58	0.00	0.0627	10.87	478.4	388.38	0.0782	674.5	12.141	24.10	14.68	1.56
	82.28	25.83	69.58	0.00	0.0628	10.90	479.7	389.49	0.0782	673.6	12.125	24.07	14.66	1.56
	83.27	25.83	69.58	0.00	0.0627	10.87	478.2	388.26	0.0784	675.7	12.163	24.14	14.71	1.56
	84.27	25.81	69.58	0.00	0.0627	10.87	478.3	388.29	0.0784	676.6	12.179	24.17	14.73	1.56
	85.27	25.85	69.58	0.00	0.0626	10.86	478.0	388.16	0.0786	679.1	12.224	24.26	14.79	1.56
	86.27	25.83	69.55	0.00	0.0626	10.84	477.1	387.55	0.0788	681.5	12.268	24.36	14.84	1.56
	87.27	25.81	69.58	0.00	0.0625	10.83	476.6	386.97	0.0789	682.2	12.280	24.37	14.86	1.56
	88.27	25.83	69.58	0.00	0.0626	10.85	477.2	387.49	0.0790	683.2	12.297	24.41	14.88	1.56
	89.26	25.85	69.58	0.00	0.0625	10.84	477.1	387.37	0.0789	683.7	12.307	24.43	14.89	1.56
	90.28	25.83	69.60	-0.00	0.0625	10.83	476.6	386.84	0.0790	684.7	12.325	24.45	14.91	1.56
	91.28	25.83	69.58	-0.00	0.0625	10.84	476.8	387.12	0.0793	687.7	12.379	24.57	14.98	1.56
	92.34	25.83	69.58	0.00	0.0626	10.85	477.3	387.57	0.0791	687.0	12.366	24.54	14.97	1.57
	93.27	25.83	69.58	-0.00	0.0626	10.84	477.1	387.35	0.0792	686.8	12.362	24.54	14.96	1.56
	94.27	25.83	69.58	-0.00	0.0626	10.85	477.3	387.57	0.0792	687.0	12.366	24.54	14.97	1.56
	95.27	25.83	69.58	0.00	0.0626	10.85	477.3	387.58	0.0790	685.6	12.341	24.49	14.94	1.56
	96.27	25.81	69.58	0.00	0.0624	10.82	476.2	386.65	0.0794	689.1	12.403	24.61	15.01	1.56
	97.27	25.79	69.58	0.00	0.0624	10.82	476.0	386.44	0.0794	690.1	12.422	24.65	15.03	1.56
	98.27	25.81	69.58	0.00	0.0624	10.82	476.1	386.55	0.0794	689.7	12.415	24.64	15.03	1.57
	99.26	25.81	69.58	0.00	0.0624	10.82	476.2	386.63	0.0796	693.6	12.486	24.78	15.12	1.57
	100.26	25.81	69.58	0.00	0.0624	10.81	475.6	386.11	0.0796	692.4	12.463	24.73	15.09	1.57
	101.28	25.83	69.58	-0.00	0.0624	10.80	475.4	385.98	0.0797	693.6	12.485	24.78	15.12	1.56
	102.26	25.83	69.58	0.00	0.0623	10.79	474.9	385.61	0.0798	696.0	12.529	24.87	15.17	1.56
	103.27	25.83	69.58	-0.00	0.0624	10.81	475.6	386.18	0.0799	696.1	12.530	24.87	15.17	1.57
	104.26	25.81	69.60	0.00	0.0624	10.80	475.3	385.73	0.0799	696.9	12.544	24.89	15.19	1.57
	105.27	25.85	69.60	0.00	0.0624	10.82	476.2	386.55	0.0799	696.3	12.534	24.87	15.18	1.57
	106.27	25.85	69.58	-0.00	0.0625	10.84	476.8	387.17	0.0798	696.1	12.530	24.87	15.17	1.56
	107.27	25.87	69.58	0.00	0.0624	10.81	475.5	386.11	0.0797	693.6	12.485	24.78	15.12	1.56
	108.27	25.87	69.58	-0.00	0.0623	10.80	475.2	385.86	0.0800	698.2	12.567	24.95	15.22	1.56
	109.30	25.87	69.55	-0.00	0.0623	10.79	474.7	385.60	0.0799	695.0	12.509	24.84	15.15	1.57
	110.34	25.87	69.58	0.00	0.0623	10.81	475.5	386.15	0.0801	699.7	12.595	25.00	15.25	1.57
	111.28	25.88	69.58	-0.00	0.0625	10.81	475.7	386.28	0.0802	701.0	12.619	25.05	15.28	1.57
	112.27	25.88	69.58	0.00	0.0624	10.81	475.5	386.18	0.0804	702.5	12.645	25.10	15.32	1.56
	113.26	25.88	69.58	0.00	0.0623	10.78	474.3	385.14	0.0804	703.9	12.670	25.15	15.35	1.57
	114.27	25.92	69.58	-0.00	0.0624	10.81	475.5	386.24	0.0806	705.8	12.705	25.23	15.39	1.57
	115.25	25.88	69.58	0.00	0.0622	10.77	474.1	385.02	0.0806	705.7	12.703	25.22	15.39	1.57
	116.36	25.91	69.58	-0.00	0.0623	10.79	474.8	385.62	0.0807	707.6	12.737	25.29	15.43	1.57
	117.27	25.88	69.58	0.00	0.0623	10.78	474.4	385.30	0.0807	707.3	12.731	25.27	15.42	1.57
	118.28	25.88	69.58	-0.00	0.0622	10.79	474.6	385.39	0.0809	709.7	12.774	25.36	15.47	1.56
	119.28	25.90	69.58	-0.00	0.0622	10.76	473.6	384.66	0.0811	713.0	12.834	25.48	15.55	1.56
	120.26	25.90	69.58	0.00	0.0623	10.78	474.5	385.34	0.0810	712.0	12.815	25.44	15.53	1.57
	121.28	25.90	69.55	0.00	0.0624	10.80	475.1	385.99	0.0807	707.0	12.726	25.27	15.42	1.57
