Jul 27 2015 at 9:15:18
Frequency: 1Hz.
CO2
Zero:  Value:0.954578  Date:18 Mar 2005	 at 07:22:33	
Span:  Value:0.999099  Date:18 Mar 2005	 at 07:25:09	
H2O
Zero:  Value:0.712542  Date:18 Mar 2005	 at 07:52:31	
Span:  Value:0.993508  Date:18 Mar 2005	 at 11:44:01	
	Relative Time	Temperature	Pressure	Aux Input	CO2 Absorptance	CO2 mmol/m3	CO2 mg/m3	CO2 umol/mol	H2O Absorptance	H2O mmol/m3	H2O g/m3	H2O mmol/mol	H2O(°C)	Cooler Voltage
	0.27	18.73	69.66	-0.00	0.0628	10.89	479.0	379.26	0.0690	558.8	10.059	19.47	11.43	1.43
	1.26	18.70	69.68	-0.00	0.0628	10.89	479.4	379.37	0.0690	558.8	10.059	19.46	11.43	1.43
	2.26	18.71	69.63	0.00	0.0628	10.89	479.3	379.62	0.0688	558.5	10.053	19.46	11.43	1.43
	3.24	18.71	69.63	0.00	0.0627	10.88	478.9	379.31	0.0690	558.9	10.060	19.48	11.44	1.43
	4.26	18.73	69.66	0.00	0.0627	10.87	478.2	378.67	0.0690	560.3	10.085	19.52	11.48	1.43
	5.26	18.71	69.64	0.00	0.0627	10.88	478.7	379.08	0.0691	560.1	10.081	19.52	11.47	1.43
	6.25	18.75	69.63	0.00	0.0627	10.88	478.7	379.20	0.0690	559.8	10.077	19.51	11.46	1.43
	7.25	18.71	69.66	0.00	0.0626	10.86	477.9	378.34	0.0691	560.6	10.091	19.53	11.48	1.43
	8.28	18.73	69.66	-0.00	0.0626	10.85	477.4	377.98	0.0693	562.2	10.120	19.59	11.53	1.43
	9.27	18.73	69.66	-0.00	0.0626	10.85	477.2	377.83	0.0695	566.2	10.192	19.73	11.63	1.43
	10.26	18.73	69.66	0.00	0.0622	10.78	474.3	375.54	0.0699	570.0	10.261	19.86	11.74	1.43
	11.25	18.73	69.66	0.00	0.0624	10.80	475.1	376.16	0.0698	570.8	10.274	19.88	11.76	1.43
	12.26	18.73	69.66	0.00	0.0623	10.78	474.4	375.58	0.0700	571.5	10.287	19.91	11.77	1.43
	13.28	18.73	69.66	-0.00	0.0621	10.76	473.5	374.92	0.0701	572.8	10.311	19.96	11.81	1.43
	14.26	18.73	69.63	0.00	0.0623	10.79	474.9	376.13	0.0701	573.0	10.315	19.97	11.82	1.43
	15.27	18.75	69.66	-0.00	0.0624	10.80	475.0	376.14	0.0701	572.1	10.298	19.93	11.79	1.43
	16.35	18.76	69.68	-0.00	0.0621	10.76	473.4	374.73	0.0704	575.8	10.364	20.06	11.89	1.43
	17.25	18.76	69.66	0.00	0.0617	10.67	469.5	371.80	0.0712	582.6	10.486	20.30	12.07	1.43
	18.27	18.74	69.63	0.00	0.0619	10.67	469.5	371.90	0.0708	583.9	10.511	20.35	12.10	1.43
	19.27	18.76	69.66	-0.00	0.0618	10.69	470.4	372.45	0.0711	584.5	10.520	20.36	12.12	1.43
	20.26	18.78	69.66	-0.00	0.0620	10.71	471.3	373.24	0.0708	583.1	10.495	20.32	12.08	1.43
	21.28	18.78	69.66	0.00	0.0621	10.74	472.6	374.28	0.0708	581.1	10.459	20.25	12.03	1.43
	22.26	18.78	69.63	0.00	0.0621	10.75	472.9	374.61	0.0707	580.5	10.449	20.23	12.01	1.43
	23.27	18.78	69.63	-0.00	0.0618	10.69	470.3	372.52	0.0713	585.8	10.544	20.42	12.15	1.43
	24.26	18.80	69.66	0.00	0.0617	10.66	469.0	371.44	0.0714	588.6	10.595	20.51	12.23	1.43
	25.26	18.80	69.66	0.00	0.0618	10.68	469.8	372.04	0.0712	586.1	10.549	20.42	12.16	1.43
	26.27	18.80	69.66	0.00	0.0619	10.69	470.5	372.60	0.0707	582.7	10.488	20.30	12.07	1.43
	27.27	18.78	69.66	-0.00	0.0606	10.56	464.7	367.97	0.0733	596.4	10.735	20.78	12.42	1.43
	28.27	18.80	69.66	-0.00	0.0605	10.37	456.4	361.45	0.0738	618.9	11.140	21.57	12.99	1.43
	29.30	18.80	69.66	0.00	0.0608	10.43	458.7	363.28	0.0731	611.2	11.001	21.30	12.80	1.43
	30.25	18.81	69.68	0.00	0.0611	10.57	465.1	368.18	0.0726	597.0	10.747	20.80	12.44	1.43
	31.26	18.80	69.66	0.00	0.0596	10.21	449.3	355.86	0.0754	636.0	11.449	22.16	13.41	1.43
	32.26	18.80	69.61	0.00	0.0602	10.31	453.5	359.39	0.0743	626.7	11.281	21.85	13.18	1.43
	33.26	18.79	69.66	0.00	0.0603	10.35	455.3	360.57	0.0741	621.9	11.194	21.67	13.06	1.43
	34.26	18.80	69.66	0.00	0.0600	10.30	453.0	358.74	0.0743	624.6	11.243	21.77	13.13	1.43
	35.26	18.81	69.66	0.00	0.0598	10.24	450.4	356.69	0.0751	631.8	11.372	22.02	13.31	1.43
	36.25	18.81	69.66	0.00	0.0596	10.19	448.5	355.22	0.0757	639.8	11.516	22.29	13.50	1.43
	37.25	18.81	69.66	0.00	0.0590	10.08	443.5	351.26	0.0761	646.5	11.638	22.53	13.66	1.43
	38.27	18.81	69.63	0.00	0.0597	10.19	448.4	355.24	0.0750	635.9	11.446	22.17	13.41	1.43
	39.27	18.83	69.68	0.00	0.0596	10.21	449.4	355.80	0.0753	634.6	11.423	22.11	13.38	1.43
	40.25	18.83	69.63	0.00	0.0599	10.23	450.1	356.65	0.0749	633.7	11.406	22.09	13.35	1.43
	41.34	18.81	69.65	0.00	0.0595	10.21	449.3	355.85	0.0756	636.5	11.456	22.18	13.42	1.43
	42.26	18.85	69.66	-0.00	0.0595	10.17	447.3	354.29	0.0754	638.8	11.498	22.26	13.48	1.43
	43.26	18.83	69.66	-0.00	0.0593	10.11	445.0	352.43	0.0755	640.2	11.524	22.31	13.51	1.43
	44.26	18.83	69.63	0.00	0.0598	10.26	451.3	357.54	0.0750	632.2	11.380	22.04	13.32	1.43
	45.26	18.83	69.66	0.00	0.0597	10.23	450.1	356.49	0.0753	636.4	11.454	22.18	13.42	1.43
	46.27	18.83	69.66	-0.00	0.0598	10.23	450.2	356.62	0.0751	634.8	11.427	22.12	13.38	1.43
	47.27	18.83	69.66	0.00	0.0597	10.22	449.6	356.10	0.0754	637.4	11.474	22.21	13.44	1.43
	48.27	18.85	69.66	0.00	0.0597	10.21	449.4	355.94	0.0754	637.8	11.481	22.23	13.45	1.43
	49.27	18.85	69.66	0.00	0.0596	10.19	448.2	355.03	0.0756	640.0	11.519	22.30	13.51	1.43
	50.26	18.85	69.66	-0.00	0.0598	10.24	450.4	356.74	0.0754	637.5	11.475	22.22	13.45	1.43
	51.26	18.85	69.66	-0.00	0.0592	10.15	446.5	353.62	0.0765	649.0	11.682	22.62	13.72	1.43
	52.28	18.85	69.68	-0.00	0.0592	10.10	444.6	352.04	0.0765	652.7	11.749	22.74	13.81	1.43
	53.26	18.86	69.66	0.00	0.0589	10.08	443.7	351.49	0.0772	656.6	11.818	22.88	13.90	1.43
	54.26	18.85	69.63	0.00	0.0575	9.73	428.1	339.24	0.0795	694.4	12.499	24.21	14.77	1.44
	55.26	18.86	69.66	0.00	0.0569	9.62	423.1	335.17	0.0807	702.9	12.652	24.50	14.96	1.43
	56.27	18.85	69.66	-0.00	0.0578	9.77	429.7	340.34	0.0793	692.6	12.467	24.14	14.73	1.43
	57.25	18.86	69.63	0.00	0.0577	9.79	430.9	341.46	0.0794	689.3	12.408	24.03	14.65	1.43
	58.27	18.88	69.66	-0.00	0.0572	9.69	426.3	337.65	0.0800	695.4	12.517	24.24	14.79	1.43
	59.26	18.86	69.66	-0.00	0.0582	9.84	433.1	343.10	0.0783	678.5	12.213	23.65	14.41	1.43
	60.25	18.86	69.66	-0.00	0.0585	9.97	438.8	347.62	0.0779	668.1	12.026	23.29	14.17	1.44
	61.26	18.88	69.66	-0.00	0.0570	9.69	426.2	337.63	0.0803	701.2	12.622	24.44	14.92	1.43
	62.26	18.86	69.66	0.00	0.0571	9.65	424.6	336.36	0.0800	698.4	12.571	24.34	14.86	1.43
	63.24	18.89	69.66	0.00	0.0579	9.79	430.8	341.31	0.0786	685.0	12.330	23.88	14.56	1.43
	64.26	18.90	69.66	0.00	0.0580	9.90	435.7	345.16	0.0785	670.5	12.069	23.37	14.23	1.43
	65.27	18.90	69.66	-0.00	0.0580	9.82	432.1	342.33	0.0789	685.5	12.339	23.90	14.57	1.44
	66.25	18.88	69.66	0.00	0.0580	9.87	434.4	344.14	0.0792	685.6	12.340	23.90	14.57	1.44
	67.27	18.90	69.63	-0.00	0.0582	9.88	434.8	344.61	0.0784	677.2	12.189	23.61	14.38	1.43
	68.25	18.91	69.68	0.00	0.0581	9.89	435.0	344.54	0.0791	682.3	12.281	23.78	14.50	1.44
	69.23	18.90	69.66	0.00	0.0579	9.86	433.7	343.54	0.0796	687.8	12.380	23.97	14.62	1.44
	70.28	18.90	69.66	-0.00	0.0575	9.72	427.6	338.73	0.0802	707.9	12.742	24.67	15.07	1.44
	71.25	18.91	69.66	0.00	0.0577	9.79	431.0	341.44	0.0787	683.8	12.309	23.84	14.53	1.44
	72.26	18.91	69.63	0.00	0.0578	9.78	430.5	341.14	0.0781	677.8	12.200	23.64	14.39	1.44
	73.24	18.91	69.66	0.00	0.0578	9.83	432.4	342.55	0.0791	681.8	12.272	23.77	14.49	1.44
	74.26	18.89	69.66	0.00	0.0577	9.80	431.1	341.50	0.0796	690.0	12.420	24.05	14.67	1.44
	75.25	18.89	69.66	-0.00	0.0568	9.56	420.5	333.16	0.0814	719.6	12.953	25.08	15.32	1.44
	76.25	18.93	69.66	-0.00	0.0568	9.58	421.3	333.84	0.0811	717.3	12.911	25.01	15.27	1.44
	77.24	18.93	69.66	0.00	0.0571	9.68	426.1	337.59	0.0804	700.4	12.607	24.42	14.90	1.44
	78.27	18.93	69.66	0.00	0.0575	9.73	428.3	339.35	0.0793	688.3	12.389	24.00	14.63	1.44
	79.25	18.93	69.66	0.00	0.0574	9.71	427.4	338.61	0.0796	692.3	12.461	24.13	14.72	1.44
	80.26	18.93	69.66	-0.00	0.0576	9.75	429.1	339.99	0.0795	691.3	12.443	24.10	14.70	1.44
	81.25	18.93	69.66	0.00	0.0576	9.75	429.0	339.89	0.0791	686.9	12.364	23.95	14.60	1.44
	82.26	18.91	69.66	0.00	0.0575	9.75	429.2	340.03	0.0801	697.5	12.555	24.32	14.84	1.44
	83.24	18.96	69.66	0.00	0.0573	9.71	427.4	338.69	0.0804	702.3	12.642	24.49	14.95	1.44
	84.26	18.95	69.63	0.00	0.0573	9.68	425.8	337.47	0.0802	704.2	12.675	24.56	14.99	1.44
	85.24	18.93	69.66	0.00	0.0571	9.66	425.1	336.83	0.0803	699.3	12.587	24.38	14.88	1.44
	86.27	18.95	69.66	0.00	0.0568	9.62	423.2	335.35	0.0807	704.5	12.681	24.56	14.99	1.44
	87.27	18.95	69.63	-0.00	0.0567	9.57	421.2	333.86	0.0810	710.8	12.795	24.79	15.13	1.44
	88.33	18.95	69.65	0.00	0.0570	9.64	424.2	336.15	0.0801	698.7	12.577	24.36	14.87	1.44
	89.25	18.96	69.66	0.00	0.0563	9.51	418.3	331.46	0.0811	712.0	12.816	24.83	15.16	1.44
	90.25	18.96	69.66	0.00	0.0568	9.58	421.5	333.99	0.0802	703.0	12.654	24.51	14.96	1.44
	91.25	18.93	69.66	0.00	0.0568	9.56	420.8	333.41	0.0800	700.0	12.600	24.40	14.89	1.44
	92.26	18.96	69.66	0.00	0.0565	9.51	418.3	331.48	0.0807	707.2	12.729	24.66	15.06	1.44
	93.26	18.98	69.66	-0.00	0.0562	9.46	416.2	329.81	0.0812	713.2	12.838	24.87	15.19	1.44
	94.27	18.98	69.61	-0.00	0.0565	9.50	418.0	331.46	0.0806	707.5	12.735	24.69	15.06	1.44
	95.25	18.98	69.66	0.00	0.0562	9.48	417.2	330.59	0.0815	714.4	12.859	24.91	15.21	1.44
	96.25	18.96	69.66	0.00	0.0560	9.43	415.0	328.86	0.0814	717.7	12.918	25.02	15.28	1.44
	97.25	18.96	69.66	0.00	0.0562	9.49	417.6	330.90	0.0807	701.9	12.633	24.47	14.94	1.44
	98.25	18.98	69.66	0.00	0.0552	9.29	408.7	323.87	0.0828	733.6	13.206	25.58	15.63	1.44
	99.25	18.98	69.68	0.00	0.0558	9.37	412.2	326.50	0.0818	721.3	12.983	25.14	15.36	1.44
	100.25	18.96	69.61	0.00	0.0555	9.34	411.0	325.87	0.0822	725.2	13.054	25.30	15.45	1.44
	101.26	18.99	69.66	0.00	0.0550	9.23	406.1	321.86	0.0829	734.0	13.212	25.59	15.64	1.44
	102.26	18.99	69.63	0.00	0.0544	9.10	400.2	317.28	0.0839	749.6	13.493	26.15	15.97	1.44
	103.27	19.00	69.66	-0.00	0.0545	9.08	399.6	316.71	0.0837	750.2	13.504	26.16	15.98	1.44
	104.24	19.00	69.63	0.00	0.0551	9.18	404.1	320.33	0.0819	728.7	13.117	25.42	15.52	1.44
	105.33	19.00	69.63	-0.00	0.0551	9.23	406.0	321.88	0.0817	719.8	12.956	25.11	15.33	1.44
	106.27	18.99	69.66	0.00	0.0545	9.20	404.9	320.86	0.0825	721.8	12.992	25.17	15.38	1.44
	107.25	19.00	69.66	0.00	0.0548	9.16	403.1	319.42	0.0812	716.3	12.893	24.98	15.26	1.44
	108.25	19.01	69.66	0.00	0.0544	9.10	400.3	317.28	0.0822	725.1	13.052	25.29	15.45	1.44
	109.26	19.01	69.63	-0.00	0.0539	8.99	395.7	313.73	0.0823	733.9	13.211	25.60	15.64	1.44
	110.25	18.99	69.63	0.00	0.0541	9.06	398.8	316.12	0.0814	714.1	12.855	24.91	15.21	1.44
	111.26	19.00	69.68	0.00	0.0534	8.88	390.7	309.55	0.0824	730.4	13.147	25.46	15.56	1.44
	112.26	19.03	69.66	-0.00	0.0535	8.92	392.6	311.19	0.0818	719.6	12.952	25.09	15.33	1.44
	113.26	19.03	69.66	0.00	0.0527	8.75	385.1	305.26	0.0829	738.4	13.291	25.75	15.73	1.44
	114.24	19.03	69.66	0.00	0.0531	8.82	388.2	307.66	0.0819	722.7	13.009	25.21	15.40	1.45
	115.25	19.03	69.66	0.00	0.0527	8.76	385.3	305.37	0.0821	723.9	13.030	25.25	15.42	1.44
	116.27	19.04	69.66	-0.00	0.0529	8.79	386.6	306.42	0.0818	720.9	12.976	25.14	15.36	1.45
	117.27	19.03	69.68	0.00	0.0527	8.70	383.0	303.46	0.0816	727.3	13.091	25.35	15.50	1.45
	118.25	19.04	69.68	0.00	0.0513	8.58	377.6	299.19	0.0842	738.1	13.285	25.73	15.73	1.45
	119.26	19.03	69.66	-0.00	0.0507	8.38	368.8	292.34	0.0847	759.5	13.672	26.49	16.17	1.45
	120.25	19.03	69.66	0.00	0.0514	8.48	373.1	295.71	0.0827	732.7	13.189	25.55	15.61	1.45
	121.26	19.05	69.66	-0.00	0.0519	8.57	377.3	299.05	0.0809	712.9	12.832	24.86	15.18	1.45
	122.24	19.06	69.66	0.00	0.0517	8.54	375.8	297.89	0.0815	716.4	12.894	24.99	15.26	1.45
	123.24	19.03	69.63	0.00	0.0512	8.46	372.3	295.19	0.0817	719.7	12.955	25.11	15.33	1.45
	124.25	19.04	69.66	-0.00	0.0509	8.37	368.3	291.91	0.0819	724.2	13.036	25.26	15.43	1.45
