Jul 27 2015 at 10:53:18
Frequency: 1.00Hz.
CO2
Zero:  Value:0.95  Date:18 Mar 2005	 at 07:22:33	
Span:  Value:1.00  Date:18 Mar 2005	 at 07:25:09	
H2O
Zero:  Value:0.71  Date:18 Mar 2005	 at 07:52:31	
Span:  Value:0.99  Date:18 Mar 2005	 at 11:44:01	
	Relative Time	Temperature	Pressure	Aux Input	CO2 Absorptance	CO2 mmol/m3	CO2 mg/m3	CO2 umol/mol	H2O Absorptance	H2O mmol/m3	H2O g/m3	H2O mmol/mol	H2O(°C)	Cooler Voltage
	0.19	28.25	69.58	0.00	0.0623	10.79	474.7	388.56	0.0684	565.5	10.179	20.37	12.10	1.50
	1.12	28.25	69.58	0.00	0.0623	10.79	474.9	388.71	0.0683	546.4	9.835	19.68	11.58	1.50
	2.12	28.23	69.58	0.00	0.0625	10.82	476.1	389.68	0.0703	572.3	10.302	20.61	12.28	1.50
	3.14	28.23	69.58	0.00	0.0625	10.84	476.8	390.21	0.0694	564.2	10.155	20.32	12.06	1.50
	4.12	28.23	69.58	0.00	0.0622	10.75	473.2	387.28	0.0699	573.2	10.318	20.64	12.31	1.50
	5.12	28.25	69.63	0.00	0.0623	10.77	474.1	387.74	0.0695	568.8	10.239	20.47	12.19	1.50
	6.12	28.26	69.58	0.00	0.0623	10.79	474.6	388.48	0.0695	567.6	10.217	20.44	12.16	1.50
	7.13	28.25	69.58	-0.00	0.0625	10.82	475.9	389.55	0.0691	563.6	10.146	20.30	12.05	1.50
	8.11	28.26	69.60	0.00	0.0624	10.82	476.0	389.48	0.0690	556.6	10.019	20.04	11.86	1.50
	9.14	28.25	69.60	-0.00	0.0624	10.81	475.8	389.28	0.0700	573.0	10.314	20.63	12.30	1.50
	10.12	28.25	69.58	-0.00	0.0624	10.84	477.0	390.46	0.0695	556.7	10.020	20.05	11.86	1.50
	11.11	28.23	69.58	0.00	0.0624	10.82	476.0	389.58	0.0704	576.4	10.375	20.76	12.39	1.50
	12.15	28.23	69.58	-0.00	0.0624	10.82	475.9	389.49	0.0704	576.6	10.378	20.76	12.39	1.50
	13.12	28.23	69.60	0.00	0.0624	10.80	475.2	388.78	0.0703	577.9	10.403	20.81	12.43	1.50
	14.21	28.23	69.58	-0.00	0.0624	10.80	475.3	389.05	0.0708	581.0	10.458	20.92	12.51	1.50
	15.12	28.22	69.58	0.00	0.0623	10.80	475.2	388.97	0.0713	576.7	10.381	20.77	12.40	1.50
	16.15	28.21	69.58	-0.00	0.0623	10.78	474.2	388.11	0.0717	592.3	10.662	21.33	12.80	1.50
	17.13	28.20	69.60	-0.00	0.0622	10.77	474.1	387.86	0.0722	591.3	10.643	21.28	12.78	1.50
	18.14	28.23	69.61	-0.00	0.0622	10.76	473.5	387.41	0.0722	598.3	10.769	21.54	12.96	1.50
	19.13	28.23	69.60	-0.00	0.0622	10.76	473.5	387.43	0.0721	598.3	10.769	21.54	12.96	1.50
	20.11	28.23	69.55	0.00	0.0621	10.74	472.7	387.06	0.0719	593.7	10.687	21.39	12.84	1.50
	21.14	28.18	69.58	-0.00	0.0621	10.75	473.0	387.07	0.0714	595.6	10.721	21.45	12.89	1.50
	22.12	28.23	69.60	-0.00	0.0621	10.74	472.4	386.51	0.0709	588.9	10.601	21.20	12.72	1.50
	23.14	28.23	69.58	-0.00	0.0621	10.74	472.4	386.61	0.0719	593.8	10.688	21.38	12.84	1.50
	24.12	28.21	69.58	-0.00	0.0620	10.72	471.7	386.05	0.0719	593.0	10.674	21.35	12.82	1.50
	25.12	28.23	69.58	0.00	0.0620	10.72	471.6	386.02	0.0722	599.2	10.785	21.58	12.98	1.50
	26.15	28.23	69.58	-0.00	0.0622	10.72	471.6	386.03	0.0707	594.0	10.691	21.39	12.85	1.50
	27.13	28.23	69.58	0.00	0.0619	10.72	471.7	386.08	0.0721	590.7	10.633	21.27	12.76	1.50
	28.13	28.23	69.58	0.00	0.0618	10.70	470.6	385.19	0.0729	599.9	10.799	21.61	13.00	1.50
	29.13	28.23	69.58	0.00	0.0618	10.69	470.2	384.87	0.0713	587.2	10.570	21.15	12.67	1.50
	30.12	28.23	69.58	0.00	0.0617	10.67	469.3	384.13	0.0730	606.6	10.919	21.84	13.17	1.50
	31.12	28.23	69.58	0.00	0.0618	10.68	469.9	384.59	0.0701	580.4	10.447	20.90	12.50	1.50
	32.12	28.23	69.60	0.00	0.0616	10.64	467.9	382.86	0.0736	615.4	11.077	22.15	13.39	1.50
	33.13	28.23	69.58	-0.00	0.0615	10.62	467.1	382.33	0.0732	611.0	10.997	22.00	13.28	1.50
	34.13	28.23	69.58	-0.00	0.0614	10.61	466.7	381.99	0.0733	615.5	11.079	22.17	13.39	1.50
	35.12	28.23	69.58	0.00	0.0615	10.60	466.5	381.78	0.0715	602.0	10.836	21.68	13.05	1.50
	36.19	28.22	69.58	0.00	0.0614	10.59	466.1	381.46	0.0740	616.7	11.100	22.21	13.42	1.50
	37.11	28.24	69.60	0.00	0.0613	10.57	465.1	380.51	0.0733	616.7	11.100	22.20	13.42	1.51
	38.13	28.27	69.58	0.00	0.0615	10.59	466.0	381.48	0.0715	603.1	10.855	21.72	13.08	1.50
	39.11	28.26	69.58	0.00	0.0614	10.59	466.0	381.46	0.0736	601.4	10.824	21.66	13.04	1.50
	40.11	28.25	69.58	0.00	0.0613	10.55	464.4	380.08	0.0731	614.5	11.061	22.13	13.37	1.50
	41.12	28.25	69.58	0.00	0.0614	10.62	467.2	382.37	0.0725	596.6	10.738	21.48	12.92	1.50
	42.14	28.25	69.58	-0.00	0.0614	10.62	467.2	382.39	0.0720	588.9	10.600	21.21	12.72	1.50
	43.12	28.25	69.60	-0.00	0.0613	10.54	463.7	379.38	0.0722	615.9	11.086	22.17	13.40	1.50
	44.13	28.25	69.58	-0.00	0.0613	10.57	464.9	380.52	0.0728	593.8	10.688	21.38	12.84	1.50
	45.12	28.25	69.60	0.00	0.0611	10.53	463.4	379.12	0.0740	621.7	11.191	22.38	13.55	1.50
	46.11	28.25	69.61	0.00	0.0610	10.51	462.6	378.51	0.0746	622.5	11.206	22.41	13.57	1.50
	47.13	28.27	69.58	-0.00	0.0610	10.52	462.8	378.88	0.0745	625.6	11.262	22.53	13.65	1.51
	48.19	28.25	69.61	0.00	0.0613	10.57	465.0	380.44	0.0699	563.3	10.139	20.28	12.04	1.50
	49.14	28.26	69.60	-0.00	0.0612	10.59	465.8	381.17	0.0718	573.0	10.314	20.63	12.30	1.51
	50.12	28.26	69.60	0.00	0.0612	10.54	463.8	379.55	0.0717	593.2	10.677	21.36	12.83	1.50
	51.14	28.26	69.58	-0.00	0.0612	10.54	463.9	379.73	0.0715	591.2	10.642	21.29	12.78	1.50
	52.14	28.26	69.58	-0.00	0.0610	10.51	462.6	378.64	0.0741	613.9	11.051	22.11	13.36	1.50
	53.12	28.28	69.58	0.00	0.0608	10.47	460.9	377.30	0.0738	620.5	11.169	22.35	13.52	1.50
	54.12	28.26	69.61	0.00	0.0609	10.46	460.3	376.60	0.0745	626.7	11.280	22.56	13.67	1.50
	55.21	28.26	69.58	-0.00	0.0607	10.46	460.1	376.65	0.0744	623.9	11.229	22.47	13.60	1.51
	56.11	28.26	69.58	0.00	0.0608	10.46	460.3	376.75	0.0747	630.6	11.351	22.71	13.77	1.50
	57.13	28.26	69.60	-0.00	0.0606	10.43	459.1	375.70	0.0748	624.4	11.239	22.48	13.62	1.50
	58.13	28.28	69.60	-0.00	0.0605	10.39	457.2	374.11	0.0752	634.6	11.422	22.85	13.86	1.50
	59.12	28.26	69.60	-0.00	0.0606	10.41	458.0	374.76	0.0752	635.8	11.445	22.89	13.89	1.50
	60.12	28.28	69.60	0.00	0.0604	10.37	456.1	373.27	0.0756	640.7	11.532	23.07	14.01	1.51
	61.14	28.26	69.60	-0.00	0.0602	10.35	455.2	372.51	0.0759	643.7	11.586	23.18	14.08	1.51
	62.15	28.28	69.58	-0.00	0.0599	10.25	450.9	369.13	0.0768	655.5	11.800	23.61	14.37	1.51
	63.12	28.28	69.61	0.00	0.0596	10.21	449.2	367.58	0.0769	658.2	11.847	23.70	14.43	1.51
	64.13	28.26	69.60	0.00	0.0597	10.21	449.1	367.47	0.0772	659.3	11.867	23.74	14.45	1.51
	65.13	28.24	69.61	-0.00	0.0596	10.19	448.2	366.69	0.0773	662.2	11.919	23.84	14.52	1.51
	66.14	28.26	69.63	-0.00	0.0594	10.17	447.4	365.95	0.0772	657.5	11.835	23.66	14.41	1.51
	67.13	28.28	69.58	0.00	0.0589	10.06	442.8	362.52	0.0783	675.0	12.150	24.31	14.82	1.51
	68.11	28.30	69.60	0.00	0.0589	10.01	440.5	360.49	0.0787	684.3	12.317	24.64	15.03	1.51
	69.20	28.28	69.60	-0.00	0.0583	9.90	435.7	356.58	0.0799	695.2	12.513	25.03	15.28	1.51
	70.11	28.28	69.58	0.00	0.0584	9.92	436.6	357.38	0.0798	695.8	12.524	25.06	15.29	1.51
	71.12	28.31	69.61	0.00	0.0584	9.93	436.9	357.57	0.0798	693.2	12.477	24.96	15.23	1.51
	72.10	28.28	69.58	0.00	0.0581	9.89	435.3	356.29	0.0804	698.8	12.578	25.17	15.36	1.51
	73.12	28.28	69.60	0.00	0.0579	9.86	433.7	354.94	0.0808	706.0	12.708	25.42	15.52	1.51
	74.12	28.30	69.63	0.00	0.0580	9.87	434.4	355.38	0.0807	705.2	12.694	25.38	15.50	1.51
	75.13	28.30	69.58	-0.00	0.0580	9.85	433.4	354.84	0.0806	706.6	12.719	25.45	15.53	1.51
	76.13	28.30	69.60	0.00	0.0582	9.87	434.3	355.45	0.0806	706.7	12.720	25.45	15.53	1.51
	77.11	28.30	69.58	0.00	0.0583	9.90	435.8	356.77	0.0801	699.9	12.598	25.21	15.38	1.51
	78.14	28.30	69.61	-0.00	0.0581	9.87	434.4	355.46	0.0810	710.1	12.782	25.57	15.61	1.51
	79.12	28.30	69.58	0.00	0.0581	9.87	434.3	355.51	0.0812	713.0	12.834	25.68	15.67	1.51
	80.14	28.30	69.60	-0.00	0.0581	9.87	434.3	355.40	0.0810	714.1	12.854	25.71	15.70	1.51
	81.20	28.32	69.61	-0.00	0.0582	9.90	435.7	356.57	0.0810	710.7	12.792	25.59	15.62	1.51
	82.14	28.32	69.60	-0.00	0.0582	9.89	435.4	356.30	0.0812	712.6	12.827	25.66	15.67	1.51
	83.12	28.32	69.63	0.00	0.0583	9.92	436.3	356.98	0.0809	712.2	12.820	25.64	15.66	1.51
	84.13	28.34	69.60	0.00	0.0583	9.91	436.0	356.87	0.0811	710.7	12.793	25.60	15.63	1.51
	85.13	28.34	69.61	-0.00	0.0583	9.92	436.4	357.19	0.0812	713.1	12.836	25.68	15.68	1.51
	86.13	28.34	69.63	-0.00	0.0583	9.91	435.9	356.62	0.0813	714.9	12.868	25.74	15.72	1.51
	87.11	28.33	69.60	0.00	0.0582	9.89	435.2	356.17	0.0815	718.7	12.937	25.88	15.80	1.51
	88.11	28.34	69.60	0.00	0.0583	9.91	436.2	357.04	0.0814	714.2	12.855	25.72	15.70	1.51
	89.12	28.34	69.57	-0.00	0.0584	9.92	436.3	357.25	0.0815	715.8	12.885	25.79	15.74	1.51
	90.11	28.38	69.60	0.00	0.0584	9.94	437.1	357.84	0.0815	717.9	12.923	25.86	15.78	1.51
	91.14	28.38	69.58	-0.00	0.0584	9.94	437.2	358.03	0.0812	708.8	12.759	25.54	15.59	1.51
	92.12	28.37	69.63	0.00	0.0585	9.95	437.7	358.17	0.0818	719.4	12.949	25.90	15.82	1.51
	93.13	28.36	69.58	0.00	0.0584	9.94	437.2	357.99	0.0816	716.7	12.900	25.82	15.76	1.51
	94.12	28.42	69.58	0.00	0.0584	9.94	437.3	358.17	0.0815	717.3	12.911	25.85	15.77	1.51
	95.11	28.40	69.58	0.00	0.0583	9.92	436.4	357.38	0.0816	719.0	12.942	25.91	15.81	1.51
	96.13	28.40	69.60	0.00	0.0581	9.89	435.3	356.34	0.0821	726.7	13.081	26.18	15.98	1.51
	97.13	28.38	69.61	-0.00	0.0581	9.87	434.2	355.45	0.0821	727.4	13.094	26.20	15.99	1.51
	98.12	28.38	69.58	-0.00	0.0580	9.84	432.9	354.47	0.0826	730.5	13.150	26.32	16.06	1.51
	99.12	28.38	69.61	-0.00	0.0579	9.85	433.3	354.69	0.0826	732.2	13.180	26.37	16.09	1.51
	100.14	28.37	69.58	-0.00	0.0579	9.84	433.1	354.64	0.0827	735.4	13.236	26.49	16.16	1.51
	101.12	28.38	69.58	-0.00	0.0578	9.80	431.4	353.26	0.0828	735.0	13.230	26.48	16.15	1.51
	102.13	28.37	69.60	-0.00	0.0577	9.79	430.8	352.62	0.0828	738.5	13.293	26.60	16.23	1.51
	103.12	28.38	69.60	-0.00	0.0576	9.77	429.7	351.76	0.0833	742.6	13.366	26.75	16.31	1.51
	104.12	28.38	69.58	0.00	0.0576	9.76	429.3	351.58	0.0834	742.9	13.372	26.77	16.32	1.51
	105.13	28.39	69.60	0.00	0.0575	9.75	429.2	351.35	0.0836	744.9	13.408	26.83	16.36	1.51
	106.13	28.40	69.55	-0.00	0.0574	9.72	427.7	350.36	0.0835	746.7	13.441	26.92	16.40	1.51
	107.14	28.37	69.63	0.00	0.0573	9.70	427.0	349.36	0.0837	748.0	13.463	26.93	16.43	1.51
	108.12	28.40	69.58	0.00	0.0574	9.72	427.7	350.25	0.0840	752.8	13.550	27.12	16.53	1.51
	109.11	28.40	69.58	0.00	0.0574	9.72	427.5	350.12	0.0837	751.9	13.534	27.09	16.51	1.51
	110.12	28.42	69.58	0.00	0.0574	9.70	427.0	349.67	0.0841	751.1	13.520	27.06	16.50	1.51
	111.12	28.40	69.61	-0.00	0.0574	9.72	427.6	350.05	0.0840	751.1	13.519	27.05	16.49	1.51
	112.13	28.39	69.58	-0.00	0.0574	9.72	427.5	350.08	0.0839	752.3	13.542	27.11	16.52	1.52
	113.12	28.42	69.58	0.00	0.0573	9.71	427.1	349.79	0.0842	752.9	13.552	27.13	16.53	1.52
	114.11	28.39	69.60	0.00	0.0572	9.71	427.2	349.67	0.0842	755.3	13.595	27.20	16.58	1.51
	115.11	28.44	69.60	-0.00	0.0572	9.68	426.0	348.77	0.0845	758.2	13.647	27.31	16.64	1.51
	116.14	28.42	69.60	0.00	0.0572	9.68	426.0	348.80	0.0846	760.3	13.686	27.39	16.69	1.51
	117.13	28.42	69.58	0.00	0.0571	9.65	424.8	347.86	0.0849	762.4	13.722	27.47	16.73	1.51
	118.12	28.42	69.58	-0.00	0.0572	9.67	425.5	348.48	0.0848	763.7	13.746	27.52	16.76	1.52
	119.14	28.42	69.58	-0.00	0.0572	9.67	425.5	348.49	0.0849	764.0	13.752	27.53	16.76	1.52
	120.12	28.41	69.58	0.00	0.0571	9.67	425.5	348.44	0.0850	765.9	13.786	27.60	16.80	1.51
	121.14	28.42	69.58	-0.00	0.0571	9.65	424.4	347.56	0.0850	765.2	13.774	27.57	16.79	1.51
	122.12	28.42	69.60	-0.00	0.0569	9.62	423.4	346.62	0.0853	767.9	13.823	27.66	16.84	1.52
	123.12	28.43	69.58	0.00	0.0568	9.59	422.1	345.70	0.0856	772.8	13.910	27.85	16.94	1.51
	124.13	28.44	69.57	-0.00	0.0567	9.57	420.9	344.75	0.0855	773.7	13.927	27.88	16.96	1.52
	125.18	28.44	69.63	0.00	0.0568	9.58	421.7	345.12	0.0857	776.4	13.974	27.96	17.02	1.52
	126.11	28.42	69.58	0.00	0.0566	9.57	421.0	344.78	0.0859	778.8	14.018	28.06	17.06	1.52
	127.11	28.42	69.58	0.00	0.0565	9.54	419.9	343.88	0.0860	778.3	14.009	28.05	17.06	1.52
	128.14	28.44	69.60	0.00	0.0565	9.51	418.6	342.74	0.0864	784.4	14.119	28.26	17.18	1.52
	129.20	28.45	69.60	-0.00	0.0564	9.50	418.0	342.29	0.0865	784.3	14.117	28.26	17.18	1.52
	130.14	28.43	69.58	-0.00	0.0563	9.50	418.1	342.42	0.0867	789.1	14.204	28.44	17.27	1.52
	131.13	28.46	69.58	-0.00	0.0563	9.49	417.6	342.08	0.0866	787.9	14.182	28.39	17.25	1.52
	132.13	28.45	69.61	0.00	0.0564	9.51	418.4	342.53	0.0867	788.6	14.195	28.41	17.27	1.52
	133.13	28.45	69.58	0.00	0.0563	9.50	417.9	342.30	0.0866	788.9	14.200	28.43	17.27	1.52
	134.12	28.43	69.58	-0.00	0.0564	9.49	417.6	342.03	0.0864	786.1	14.151	28.33	17.21	1.52
	135.11	28.45	69.58	0.00	0.0563	9.49	417.7	342.09	0.0865	786.0	14.147	28.32	17.21	1.52
	136.13	28.45	69.60	0.00	0.0563	9.50	417.9	342.16	0.0865	785.8	14.145	28.31	17.21	1.52
	137.12	28.45	69.60	-0.00	0.0565	9.52	419.1	343.15	0.0865	787.1	14.169	28.36	17.24	1.52
	138.12	28.43	69.60	-0.00	0.0566	9.54	419.9	343.80	0.0863	783.7	14.107	28.23	17.17	1.52
	139.12	28.43	69.60	0.00	0.0566	9.54	419.7	343.65	0.0863	782.9	14.092	28.20	17.15	1.52
	140.12	28.45	69.58	-0.00	0.0565	9.53	419.4	343.55	0.0865	787.4	14.172	28.38	17.24	1.52
	141.12	28.47	69.60	0.00	0.0563	9.50	417.8	342.12	0.0868	790.9	14.236	28.49	17.31	1.52
	142.10	28.47	69.60	0.00	0.0563	9.47	416.9	341.35	0.0870	792.6	14.267	28.56	17.35	1.52
	143.13	28.47	69.58	-0.00	0.0562	9.46	416.3	340.98	0.0868	790.0	14.221	28.47	17.29	1.52
	144.11	28.45	69.58	0.00	0.0560	9.44	415.2	340.06	0.0873	797.4	14.353	28.74	17.44	1.52
	145.11	28.47	69.58	0.00	0.0561	9.45	416.0	340.76	0.0873	796.3	14.333	28.70	17.42	1.52
	146.13	28.47	69.58	-0.00	0.0561	9.45	415.9	340.68	0.0870	795.3	14.316	28.66	17.40	1.52
	147.11	28.47	69.58	0.00	0.0561	9.44	415.2	340.09	0.0870	791.9	14.254	28.54	17.33	1.52
	148.12	28.52	69.60	0.00	0.0559	9.40	413.7	338.83	0.0873	794.9	14.309	28.65	17.39	1.52
	149.12	28.49	69.60	-0.00	0.0559	9.41	414.3	339.24	0.0875	804.2	14.476	28.98	17.58	1.52
	150.12	28.49	69.60	0.00	0.0558	9.39	413.3	338.46	0.0879	806.2	14.512	29.05	17.62	1.52
