Jul 28 2015 at 11:31:37
Frequency: 1.00Hz.
CO2
Zero:  Value:0.95  Date:18 Mar 2005	 at 07:22:33	
Span:  Value:1.00  Date:18 Mar 2005	 at 07:25:09	
H2O
Zero:  Value:0.71  Date:18 Mar 2005	 at 07:52:31	
Span:  Value:0.99  Date:18 Mar 2005	 at 11:44:01	
	Relative Time	Temperature	Pressure	Aux Input	CO2 Absorptance	CO2 mmol/m3	CO2 mg/m3	CO2 umol/mol	H2O Absorptance	H2O mmol/m3	H2O g/m3	H2O mmol/mol	H2O(°C)	Cooler Voltage
	0.19	28.42	67.63	-0.00	0.0615	10.68	470.1	396.08	0.0508	369.1	6.643	13.68	5.79	1.60
	1.17	28.38	67.65	0.00	0.0613	10.66	468.9	394.86	0.0503	361.0	6.499	13.38	5.47	1.60
	2.17	28.40	67.65	0.00	0.0612	10.66	468.9	394.90	0.0505	362.3	6.521	13.43	5.52	1.60
	3.18	28.37	67.65	-0.00	0.0612	10.66	468.9	394.88	0.0511	370.8	6.675	13.74	5.86	1.60
	4.17	28.39	67.62	0.00	0.0610	10.60	466.3	392.87	0.0511	368.0	6.625	13.64	5.75	1.60
	5.16	28.39	67.65	0.00	0.0610	10.59	466.0	392.51	0.0517	373.8	6.729	13.85	5.97	1.60
	6.18	28.40	67.65	-0.00	0.0611	10.61	466.8	393.19	0.0521	381.7	6.870	14.14	6.28	1.60
	7.18	28.38	67.65	0.00	0.0609	10.59	466.1	392.52	0.0522	381.9	6.874	14.15	6.28	1.60
	8.16	28.42	67.65	0.00	0.0609	10.59	465.8	392.32	0.0524	381.7	6.871	14.15	6.28	1.60
	9.17	28.40	67.65	-0.00	0.0606	10.49	461.8	388.92	0.0530	385.5	6.939	14.29	6.42	1.60
	10.17	28.36	67.65	-0.00	0.0608	10.56	464.6	391.23	0.0544	398.7	7.177	14.77	6.91	1.60
	11.15	28.37	67.65	0.00	0.0605	10.47	460.8	388.04	0.0539	400.5	7.208	14.84	6.97	1.60
	12.17	28.40	67.65	0.00	0.0604	10.46	460.3	387.74	0.0538	398.8	7.179	14.78	6.92	1.60
	13.18	28.36	67.63	-0.00	0.0605	10.48	461.1	388.49	0.0537	394.1	7.093	14.61	6.74	1.60
	14.18	28.38	67.65	-0.00	0.0604	10.48	461.0	388.21	0.0531	392.3	7.061	14.54	6.67	1.60
	15.26	28.36	67.68	-0.00	0.0605	10.46	460.3	387.53	0.0541	393.0	7.074	14.56	6.70	1.60
	16.16	28.34	67.65	0.00	0.0605	10.50	461.9	389.00	0.0549	411.4	7.406	15.24	7.37	1.60
	17.18	28.34	67.65	-0.00	0.0604	10.44	459.4	386.90	0.0526	385.4	6.937	14.28	6.41	1.60
	18.16	28.34	67.65	0.00	0.0605	10.48	461.2	388.39	0.0544	402.1	7.238	14.90	7.03	1.60
	19.16	28.32	67.70	0.00	0.0605	10.49	461.4	388.20	0.0538	392.8	7.070	14.54	6.69	1.60
	20.17	28.32	67.65	-0.00	0.0608	10.51	462.5	389.43	0.0537	397.6	7.156	14.73	6.86	1.60
	21.15	28.32	67.67	0.00	0.0608	10.52	463.1	389.80	0.0536	396.2	7.131	14.67	6.81	1.60
	22.17	28.32	67.62	-0.00	0.0604	10.48	461.3	388.59	0.0551	409.8	7.377	15.19	7.31	1.60
	23.17	28.33	67.65	0.00	0.0606	10.49	461.6	388.72	0.0541	404.0	7.272	14.97	7.10	1.60
	24.26	28.32	67.65	-0.00	0.0604	10.47	460.6	387.82	0.0539	398.5	7.174	14.77	6.90	1.60
	25.18	28.36	67.65	-0.00	0.0604	10.43	459.0	386.58	0.0543	398.2	7.167	14.75	6.89	1.60
	26.18	28.33	67.65	-0.00	0.0606	10.48	461.2	388.41	0.0547	408.8	7.358	15.15	7.27	1.60
	27.18	28.34	67.65	-0.00	0.0603	10.46	460.1	387.47	0.0543	401.1	7.221	14.86	7.00	1.60
	28.16	28.33	67.65	0.00	0.0604	10.44	459.3	386.76	0.0551	405.0	7.290	15.00	7.14	1.60
	29.17	28.36	67.65	-0.00	0.0605	10.46	460.3	387.66	0.0555	414.7	7.464	15.37	7.48	1.60
	30.16	28.40	67.65	0.00	0.0602	10.39	457.3	385.14	0.0553	399.4	7.190	14.80	6.94	1.60
	31.17	28.42	67.63	0.00	0.0606	10.47	460.8	388.29	0.0566	427.9	7.702	15.86	7.94	1.60
	32.15	28.43	67.65	0.00	0.0604	10.46	460.1	387.58	0.0555	417.0	7.505	15.45	7.57	1.60
	33.17	28.43	67.67	0.00	0.0602	10.44	459.1	386.64	0.0548	410.1	7.382	15.20	7.32	1.60
	34.15	28.38	67.65	0.00	0.0603	10.43	459.1	386.67	0.0557	417.8	7.521	15.48	7.59	1.60
	35.16	28.41	67.65	0.00	0.0605	10.45	459.6	387.15	0.0585	438.3	7.890	16.24	8.30	1.60
	36.22	28.42	67.67	0.00	0.0604	10.45	459.8	387.18	0.0585	446.9	8.044	16.56	8.58	1.60
	37.18	28.42	67.65	0.00	0.0603	10.43	458.9	386.52	0.0591	453.9	8.170	16.82	8.81	1.60
	38.17	28.40	67.65	0.00	0.0600	10.41	458.0	385.76	0.0554	428.1	7.706	15.87	7.95	1.60
	39.17	28.42	67.65	0.00	0.0600	10.37	456.2	384.27	0.0569	429.7	7.735	15.93	8.01	1.60
	40.17	28.42	67.65	0.00	0.0600	10.40	457.7	385.51	0.0565	432.0	7.775	16.01	8.08	1.60
	41.19	28.42	67.65	-0.00	0.0601	10.40	457.8	385.59	0.0568	430.1	7.743	15.94	8.02	1.60
	42.18	28.41	67.70	-0.00	0.0602	10.39	457.0	384.65	0.0576	435.2	7.833	16.12	8.19	1.60
	43.15	28.40	67.65	0.00	0.0601	10.39	457.1	384.98	0.0567	429.8	7.736	15.93	8.01	1.60
	44.16	28.40	67.65	0.00	0.0603	10.40	457.5	385.34	0.0581	438.3	7.889	16.24	8.30	1.60
	45.16	28.35	67.67	0.00	0.0601	10.41	457.9	385.47	0.0566	431.7	7.770	15.99	8.07	1.60
	46.16	28.36	67.65	0.00	0.0601	10.39	457.0	384.87	0.0567	423.1	7.617	15.68	7.78	1.60
	47.25	28.36	67.65	-0.00	0.0598	10.36	455.9	383.96	0.0563	423.4	7.621	15.69	7.79	1.60
	48.16	28.40	67.70	0.00	0.0598	10.29	452.9	381.20	0.0588	438.0	7.883	16.22	8.29	1.60
	49.16	28.40	67.65	0.00	0.0600	10.34	454.9	383.12	0.0592	454.4	8.180	16.84	8.83	1.60
	50.17	28.40	67.68	0.00	0.0597	10.31	453.6	381.87	0.0608	470.6	8.470	17.43	9.35	1.60
	51.17	28.42	67.65	0.00	0.0597	10.31	453.7	382.15	0.0601	468.5	8.433	17.36	9.28	1.60
	52.24	28.40	67.65	0.00	0.0598	10.32	454.1	382.49	0.0594	458.0	8.245	16.97	8.95	1.60
	53.18	28.42	67.60	-0.00	0.0596	10.29	452.7	381.58	0.0612	483.0	8.694	17.91	9.74	1.60
	54.18	28.42	67.65	0.00	0.0597	10.32	454.2	382.62	0.0609	451.2	8.121	16.72	8.73	1.60
	55.18	28.40	67.65	-0.00	0.0596	10.27	452.0	380.71	0.0621	498.7	8.977	18.48	10.21	1.60
	56.18	28.43	67.65	-0.00	0.0598	10.31	453.5	382.00	0.0625	491.7	8.851	18.23	10.01	1.60
	57.17	28.41	67.63	-0.00	0.0595	10.26	451.6	380.49	0.0635	505.5	9.099	18.74	10.42	1.60
	58.16	28.43	67.65	0.00	0.0596	10.27	451.8	380.60	0.0634	493.5	8.884	18.29	10.06	1.60
	59.16	28.46	67.65	0.00	0.0595	10.27	451.9	380.73	0.0648	506.9	9.125	18.79	10.46	1.60
	60.17	28.43	67.63	-0.00	0.0595	10.24	450.6	379.71	0.0656	524.6	9.442	19.45	10.97	1.60
	61.17	28.41	67.65	0.00	0.0593	10.23	449.9	378.98	0.0624	502.7	9.048	18.63	10.33	1.60
	62.17	28.44	67.67	0.00	0.0594	10.22	449.9	378.83	0.0646	527.2	9.489	19.53	11.05	1.60
	63.16	28.43	67.65	0.00	0.0594	10.23	450.1	379.13	0.0626	494.8	8.906	18.34	10.10	1.60
	64.16	28.43	67.65	0.00	0.0594	10.24	450.7	379.65	0.0654	525.6	9.461	19.48	11.00	1.60
	65.16	28.43	67.65	0.00	0.0596	10.25	451.0	379.88	0.0641	509.9	9.179	18.90	10.55	1.60
	66.18	28.43	67.65	-0.00	0.0595	10.24	450.7	379.65	0.0646	516.2	9.292	19.13	10.73	1.60
	67.16	28.41	67.65	0.00	0.0595	10.25	451.0	379.86	0.0634	500.9	9.016	18.56	10.28	1.60
	68.16	28.42	67.62	-0.00	0.0595	10.24	450.5	379.62	0.0636	497.2	8.950	18.44	10.17	1.60
	69.19	28.44	67.62	-0.00	0.0593	10.22	449.8	379.06	0.0658	530.2	9.543	19.66	11.14	1.60
	70.17	28.40	67.65	0.00	0.0594	10.21	449.4	378.55	0.0666	531.7	9.571	19.71	11.18	1.60
	71.17	28.43	67.67	0.00	0.0591	10.19	448.4	377.61	0.0674	546.2	9.832	20.24	11.58	1.60
	72.18	28.42	67.65	-0.00	0.0592	10.15	446.6	376.17	0.0655	532.0	9.577	19.72	11.19	1.60
	73.15	28.43	67.65	0.00	0.0592	10.26	451.5	380.29	0.0638	491.6	8.850	18.22	10.00	1.60
	74.18	28.46	67.65	-0.00	0.0595	10.23	450.3	379.37	0.0642	502.8	9.051	18.64	10.34	1.60
	75.24	28.48	67.65	0.00	0.0595	10.25	451.0	380.01	0.0643	515.1	9.272	19.09	10.70	1.60
	76.16	28.43	67.65	0.00	0.0592	10.28	452.4	381.06	0.0682	504.8	9.087	18.71	10.40	1.60
	77.16	28.42	67.67	-0.00	0.0592	10.18	448.1	377.35	0.0692	570.3	10.265	21.13	12.24	1.60
	78.17	28.45	67.65	-0.00	0.0592	10.18	448.0	377.40	0.0675	552.2	9.940	20.47	11.75	1.60
	79.25	28.42	67.65	-0.00	0.0590	10.18	447.8	377.16	0.0676	538.6	9.694	19.96	11.37	1.60
	80.17	28.43	67.65	-0.00	0.0590	10.14	446.1	375.74	0.0657	524.1	9.433	19.42	10.96	1.60
	81.17	28.42	67.67	0.00	0.0592	10.16	447.1	376.49	0.0652	519.6	9.352	19.25	10.83	1.60
	82.18	28.43	67.65	-0.00	0.0593	10.20	448.7	377.96	0.0685	566.0	10.188	20.98	12.12	1.60
	83.17	28.41	67.65	0.00	0.0591	10.20	448.8	377.98	0.0665	550.9	9.917	20.42	11.71	1.60
	84.18	28.40	67.65	0.00	0.0590	10.17	447.3	376.78	0.0655	526.0	9.468	19.49	11.01	1.60
	85.16	28.38	67.65	0.00	0.0591	10.17	447.3	376.76	0.0652	522.3	9.402	19.36	10.91	1.60
	86.17	28.38	67.67	0.00	0.0590	10.15	446.7	376.08	0.0676	546.8	9.842	20.25	11.60	1.60
	87.16	28.38	67.67	0.00	0.0591	10.15	446.7	376.05	0.0680	555.9	10.006	20.59	11.85	1.60
	88.16	28.34	67.65	0.00	0.0590	10.14	446.3	375.85	0.0681	550.6	9.911	20.40	11.70	1.60
	89.16	28.35	67.65	0.00	0.0589	10.13	445.9	375.49	0.0673	545.8	9.824	20.22	11.57	1.60
	90.17	28.39	67.66	-0.00	0.0589	10.11	444.9	374.70	0.0681	550.2	9.904	20.39	11.69	1.60
	91.17	28.40	67.65	-0.00	0.0590	10.12	445.2	374.94	0.0688	565.7	10.183	20.97	12.11	1.60
	92.17	28.42	67.65	-0.00	0.0590	10.16	446.9	376.46	0.0674	543.9	9.790	20.16	11.52	1.60
	93.18	28.38	67.65	-0.00	0.0589	10.15	446.8	376.26	0.0663	537.3	9.672	19.91	11.33	1.60
	94.16	28.39	67.65	0.00	0.0588	10.09	444.1	374.03	0.0696	569.6	10.252	21.11	12.22	1.60
	95.19	28.40	67.65	-0.00	0.0587	10.10	444.3	374.20	0.0692	567.5	10.214	21.03	12.16	1.60
	96.17	28.39	67.65	-0.00	0.0587	10.09	444.1	374.03	0.0694	575.1	10.353	21.31	12.37	1.60
	97.17	28.43	67.65	0.00	0.0587	10.09	443.8	373.82	0.0698	583.0	10.495	21.61	12.58	1.60
	98.16	28.42	67.67	0.00	0.0588	10.09	444.0	373.83	0.0693	572.3	10.301	21.20	12.29	1.60
	99.19	28.40	67.67	-0.00	0.0588	10.10	444.4	374.14	0.0679	557.0	10.026	20.64	11.88	1.60
	100.17	28.42	67.65	-0.00	0.0587	10.08	443.3	373.40	0.0686	563.4	10.142	20.88	12.05	1.60
	101.18	28.40	67.62	-0.00	0.0587	10.06	442.7	372.98	0.0704	586.9	10.565	21.76	12.67	1.60
	102.17	28.40	67.65	0.00	0.0587	10.06	442.6	372.78	0.0711	594.9	10.707	22.05	12.88	1.60
	103.15	28.39	67.65	0.00	0.0586	10.06	442.8	372.90	0.0708	580.8	10.454	21.52	12.51	1.60
	104.16	28.41	67.65	0.00	0.0585	10.06	442.5	372.71	0.0687	569.1	10.244	21.09	12.21	1.60
	105.14	28.41	67.67	0.00	0.0585	10.05	442.0	372.20	0.0706	572.6	10.307	21.21	12.30	1.60
	106.17	28.40	67.65	-0.00	0.0585	10.04	441.9	372.19	0.0700	586.6	10.559	21.74	12.67	1.60
	107.16	28.44	67.65	0.00	0.0586	10.04	441.8	372.14	0.0708	591.4	10.645	21.92	12.79	1.60
	108.19	28.43	67.65	-0.00	0.0585	10.05	442.0	372.36	0.0700	582.5	10.485	21.59	12.56	1.60
	109.17	28.43	67.65	0.00	0.0585	10.04	441.8	372.12	0.0706	589.5	10.611	21.85	12.74	1.60
	110.18	28.45	67.65	-0.00	0.0585	10.03	441.1	371.61	0.0720	603.3	10.860	22.36	13.10	1.60
	111.18	28.48	67.67	-0.00	0.0584	10.02	440.9	371.36	0.0719	606.6	10.918	22.48	13.18	1.60
	112.17	28.45	67.62	0.00	0.0585	9.99	439.8	370.62	0.0711	594.1	10.694	22.03	12.86	1.60
	113.18	28.49	67.65	-0.00	0.0584	10.00	440.1	370.81	0.0725	614.1	11.055	22.77	13.37	1.60
	114.18	28.47	67.65	-0.00	0.0583	10.03	441.3	371.79	0.0723	603.7	10.867	22.38	13.11	1.60
	115.16	28.45	67.67	0.00	0.0585	10.01	440.4	370.86	0.0727	610.9	10.997	22.64	13.29	1.60
	116.16	28.46	67.68	0.00	0.0584	10.01	440.6	371.06	0.0721	605.2	10.893	22.42	13.15	1.60
	117.17	28.45	67.63	-0.00	0.0584	10.03	441.3	371.86	0.0725	604.4	10.880	22.41	13.13	1.61
	118.16	28.45	67.65	0.00	0.0586	10.02	441.1	371.55	0.0719	603.8	10.868	22.38	13.11	1.60
	119.19	28.45	67.67	-0.00	0.0584	10.02	441.0	371.40	0.0713	600.6	10.811	22.26	13.03	1.60
	120.18	28.45	67.65	0.00	0.0583	10.01	440.5	371.11	0.0710	588.0	10.584	21.80	12.71	1.60
	121.15	28.43	67.65	0.00	0.0582	9.95	437.7	368.71	0.0717	596.9	10.744	22.12	12.93	1.60
	122.17	28.43	67.68	0.00	0.0582	9.98	439.0	369.62	0.0722	598.5	10.773	22.17	12.97	1.60
	123.16	28.39	67.65	-0.00	0.0580	9.93	436.9	368.00	0.0717	599.1	10.784	22.20	12.99	1.61
	124.16	28.34	67.65	0.00	0.0582	9.95	437.8	368.68	0.0717	601.2	10.822	22.28	13.04	1.60
