Jul 28 2015 at 14:37:02
Frequency: 1.00Hz.
CO2
Zero:  Value:0.95  Date:18 Mar 2005	 at 07:22:33	
Span:  Value:1.00  Date:18 Mar 2005	 at 07:25:09	
H2O
Zero:  Value:0.71  Date:18 Mar 2005	 at 07:52:31	
Span:  Value:0.99  Date:18 Mar 2005	 at 11:44:01	
	Relative Time	Temperature	Pressure	Aux Input	CO2 Absorptance	CO2 mmol/m3	CO2 mg/m3	CO2 umol/mol	H2O Absorptance	H2O mmol/m3	H2O g/m3	H2O mmol/mol	H2O(°C)	Cooler Voltage
	0.44	33.59	67.73	-0.00	0.0609	10.58	465.5	398.34	0.0565	422.3	7.602	15.90	8.00	1.61
	1.44	33.59	67.73	-0.00	0.0609	10.58	465.5	398.36	0.0571	432.9	7.791	16.30	8.36	1.61
	2.45	33.56	67.73	-0.00	0.0608	10.53	463.3	396.39	0.0589	450.7	8.113	16.97	8.96	1.61
	3.49	33.61	67.73	0.00	0.0608	10.54	463.6	396.75	0.0599	464.2	8.356	17.48	9.40	1.61
	4.43	33.58	67.75	0.00	0.0609	10.55	464.2	397.09	0.0596	460.8	8.295	17.35	9.29	1.61
	5.43	33.63	67.70	0.00	0.0608	10.54	463.6	396.95	0.0603	464.7	8.365	17.51	9.42	1.60
	6.43	33.58	67.70	0.00	0.0607	10.52	463.1	396.47	0.0610	474.8	8.546	17.89	9.74	1.61
	7.42	33.60	67.72	0.00	0.0607	10.53	463.3	396.55	0.0613	479.1	8.623	18.04	9.87	1.60
	8.42	33.54	67.70	0.00	0.0607	10.53	463.2	396.49	0.0612	475.5	8.558	17.91	9.75	1.61
	9.44	33.54	67.73	-0.00	0.0607	10.51	462.6	395.84	0.0616	480.4	8.647	18.09	9.91	1.61
	10.44	33.54	67.72	-0.00	0.0607	10.52	462.7	395.90	0.0621	488.0	8.784	18.37	10.14	1.61
	11.42	33.52	67.72	0.00	0.0606	10.50	462.1	395.37	0.0622	487.6	8.777	18.36	10.13	1.61
	12.43	33.54	67.75	0.00	0.0606	10.50	461.8	395.03	0.0616	483.4	8.702	18.19	10.00	1.61
	13.43	33.54	67.73	-0.00	0.0606	10.50	461.8	395.12	0.0619	485.5	8.740	18.28	10.07	1.61
	14.41	33.52	67.75	0.00	0.0605	10.48	460.9	394.23	0.0627	492.5	8.866	18.54	10.28	1.61
	15.43	33.52	67.75	-0.00	0.0605	10.48	460.9	394.22	0.0623	490.9	8.837	18.48	10.23	1.61
	16.41	33.53	67.73	0.00	0.0605	10.48	461.3	394.68	0.0626	489.9	8.818	18.44	10.20	1.61
	17.41	33.56	67.73	0.00	0.0605	10.46	460.2	393.83	0.0627	489.9	8.818	18.44	10.20	1.60
	18.50	33.53	67.75	0.00	0.0605	10.47	460.8	394.08	0.0638	505.2	9.093	19.01	10.66	1.60
	19.44	33.57	67.70	-0.00	0.0605	10.46	460.3	394.00	0.0639	507.0	9.127	19.10	10.72	1.61
	20.50	33.54	67.72	0.00	0.0604	10.46	460.3	393.83	0.0646	515.8	9.284	19.42	10.97	1.61
	21.42	33.59	67.73	0.00	0.0604	10.46	460.2	393.80	0.0644	513.0	9.234	19.32	10.89	1.61
	22.43	33.52	67.72	0.00	0.0604	10.45	459.8	393.45	0.0642	511.3	9.204	19.25	10.84	1.61
	23.42	33.50	67.70	0.00	0.0604	10.44	459.3	393.08	0.0647	510.0	9.181	19.21	10.80	1.60
	24.43	33.49	67.73	0.00	0.0603	10.43	459.1	392.73	0.0643	508.9	9.159	19.15	10.77	1.61
	25.43	33.52	67.75	-0.00	0.0603	10.42	458.7	392.28	0.0646	514.9	9.268	19.37	10.95	1.61
	26.43	33.55	67.75	0.00	0.0602	10.40	457.4	391.27	0.0645	514.1	9.253	19.35	10.92	1.61
	27.43	33.54	67.70	0.00	0.0603	10.43	459.1	392.95	0.0653	523.9	9.430	19.73	11.21	1.61
	28.42	33.52	67.70	0.00	0.0603	10.43	458.7	392.62	0.0655	525.8	9.464	19.80	11.26	1.61
	29.42	33.52	67.70	-0.00	0.0603	10.42	458.3	392.27	0.0657	525.9	9.466	19.80	11.26	1.61
	30.44	33.55	67.73	-0.00	0.0603	10.43	459.0	392.74	0.0660	530.5	9.550	19.97	11.40	1.61
	31.42	33.55	67.73	0.00	0.0603	10.42	458.6	392.40	0.0664	535.2	9.634	20.15	11.53	1.61
	32.43	33.55	67.72	0.00	0.0602	10.41	458.3	392.12	0.0661	533.5	9.604	20.09	11.48	1.61
	33.49	33.51	67.70	0.00	0.0602	10.41	458.1	392.07	0.0659	530.9	9.557	19.99	11.41	1.61
	34.43	33.54	67.72	0.00	0.0603	10.42	458.4	392.24	0.0667	539.6	9.713	20.32	11.65	1.61
	35.49	33.54	67.78	0.00	0.0603	10.42	458.4	391.95	0.0667	534.4	9.619	20.10	11.51	1.61
	36.43	33.55	67.73	0.00	0.0602	10.40	457.7	391.65	0.0671	547.2	9.850	20.60	11.87	1.61
	37.42	33.63	67.75	-0.00	0.0602	10.41	457.9	391.75	0.0679	553.2	9.957	20.82	12.04	1.61
	38.42	33.62	67.73	0.00	0.0601	10.39	457.3	391.36	0.0695	564.5	10.162	21.26	12.34	1.61
	39.42	33.64	67.73	-0.00	0.0601	10.39	457.0	391.15	0.0691	572.3	10.302	21.55	12.55	1.61
	40.42	33.67	67.73	0.00	0.0601	10.38	456.8	391.03	0.0698	578.9	10.421	21.81	12.73	1.61
	41.42	33.64	67.73	0.00	0.0601	10.38	456.6	390.82	0.0694	575.2	10.353	21.66	12.63	1.60
	42.45	33.66	67.73	-0.00	0.0602	10.40	457.4	391.55	0.0694	572.5	10.304	21.56	12.56	1.61
	43.43	33.64	67.75	0.00	0.0602	10.41	458.1	391.97	0.0693	568.8	10.238	21.41	12.46	1.61
	44.43	33.67	67.75	-0.00	0.0602	10.40	457.5	391.48	0.0699	576.2	10.372	21.70	12.66	1.61
	45.43	33.64	67.73	0.00	0.0602	10.41	457.8	391.86	0.0699	571.7	10.290	21.53	12.54	1.61
	46.41	33.65	67.75	0.00	0.0601	10.39	457.2	391.24	0.0708	589.6	10.613	22.20	13.01	1.61
	47.44	33.67	67.70	-0.00	0.0601	10.39	457.1	391.45	0.0711	592.1	10.657	22.31	13.07	1.61
	48.41	33.66	67.72	0.00	0.0601	10.38	456.6	390.84	0.0711	593.2	10.678	22.34	13.10	1.61
	49.44	33.68	67.70	0.00	0.0601	10.38	456.8	391.18	0.0714	592.5	10.665	22.32	13.08	1.61
	50.50	33.71	67.73	0.00	0.0601	10.38	456.7	391.00	0.0718	602.8	10.851	22.71	13.35	1.61
	51.42	33.66	67.68	0.00	0.0601	10.37	456.5	391.02	0.0723	608.9	10.960	22.95	13.50	1.61
	52.43	33.68	67.73	-0.00	0.0600	10.36	456.0	390.30	0.0730	614.5	11.062	23.15	13.65	1.61
	53.43	33.70	67.73	-0.00	0.0600	10.36	455.8	390.22	0.0727	610.4	10.987	22.99	13.54	1.61
	54.43	33.74	67.73	0.00	0.0600	10.36	455.8	390.22	0.0735	622.3	11.202	23.44	13.84	1.61
	55.43	33.71	67.73	-0.00	0.0599	10.35	455.3	389.78	0.0736	621.8	11.193	23.42	13.83	1.61
	56.44	33.68	67.73	-0.00	0.0599	10.35	455.2	389.71	0.0738	626.9	11.284	23.61	13.95	1.61
	57.44	33.64	67.72	-0.00	0.0599	10.36	455.7	390.10	0.0742	625.2	11.254	23.55	13.91	1.61
	58.42	33.68	67.73	-0.00	0.0599	10.33	454.5	389.09	0.0743	627.5	11.295	23.64	13.97	1.61
	59.42	33.76	67.73	0.00	0.0599	10.32	454.2	388.88	0.0739	625.9	11.266	23.58	13.93	1.61
	60.42	33.78	67.70	0.00	0.0600	10.35	455.4	390.09	0.0737	624.0	11.233	23.52	13.89	1.61
	61.43	33.77	67.75	-0.00	0.0600	10.35	455.2	389.66	0.0742	631.4	11.365	23.78	14.07	1.61
	62.43	33.79	67.73	0.00	0.0599	10.34	454.9	389.55	0.0747	637.8	11.480	24.03	14.22	1.61
	63.41	33.81	67.73	0.00	0.0599	10.34	454.8	389.47	0.0744	632.9	11.393	23.85	14.11	1.61
	64.44	33.73	67.73	-0.00	0.0599	10.33	454.7	389.28	0.0746	634.3	11.417	23.89	14.13	1.61
	65.43	33.71	67.73	-0.00	0.0599	10.33	454.6	389.21	0.0746	635.9	11.447	23.95	14.17	1.61
	66.42	33.68	67.73	0.00	0.0599	10.34	454.7	389.25	0.0751	640.6	11.531	24.13	14.28	1.61
	67.42	33.66	67.73	-0.00	0.0599	10.33	454.5	389.05	0.0751	643.0	11.574	24.22	14.34	1.61
	68.44	33.69	67.73	-0.00	0.0599	10.32	454.3	388.88	0.0757	653.3	11.759	24.61	14.59	1.61
	69.44	33.64	67.73	-0.00	0.0598	10.33	454.4	388.91	0.0760	648.7	11.677	24.43	14.48	1.61
	70.43	33.69	67.68	-0.00	0.0598	10.31	453.7	388.69	0.0766	660.0	11.880	24.88	14.75	1.61
	71.43	33.66	67.73	0.00	0.0598	10.31	453.5	388.21	0.0764	659.7	11.875	24.85	14.74	1.61
	72.42	33.71	67.73	0.00	0.0597	10.30	453.1	387.89	0.0768	667.4	12.013	25.14	14.92	1.61
	73.43	33.73	67.73	-0.00	0.0599	10.34	454.8	389.42	0.0760	653.2	11.757	24.61	14.59	1.61
	74.41	33.73	67.73	0.00	0.0598	10.32	454.2	388.86	0.0764	657.8	11.841	24.78	14.70	1.61
	75.43	33.71	67.73	0.00	0.0598	10.32	454.2	388.81	0.0763	658.7	11.856	24.81	14.72	1.61
	76.41	33.71	67.75	0.00	0.0598	10.31	453.8	388.40	0.0763	658.6	11.855	24.80	14.71	1.61
	77.52	33.68	67.68	-0.00	0.0598	10.32	454.3	389.15	0.0760	651.7	11.731	24.56	14.55	1.61
	78.44	33.64	67.72	-0.00	0.0598	10.32	454.1	388.71	0.0763	657.9	11.842	24.78	14.70	1.61
	79.44	33.66	67.73	-0.00	0.0599	10.33	454.7	389.20	0.0763	657.7	11.839	24.77	14.69	1.61
	80.43	33.66	67.73	-0.00	0.0599	10.33	454.7	389.21	0.0764	660.4	11.886	24.87	14.75	1.61
	81.43	33.67	67.73	-0.00	0.0598	10.32	454.0	388.62	0.0767	665.2	11.973	25.05	14.87	1.61
	82.42	33.68	67.73	0.00	0.0597	10.30	453.2	387.93	0.0776	675.4	12.157	25.44	15.11	1.61
	83.43	33.69	67.75	0.00	0.0598	10.31	453.8	388.31	0.0766	665.7	11.982	25.06	14.88	1.61
	84.51	33.71	67.75	0.00	0.0597	10.29	452.9	387.59	0.0780	683.4	12.301	25.73	15.29	1.61
	85.44	33.68	67.72	-0.00	0.0598	10.30	453.2	387.98	0.0777	679.3	12.228	25.59	15.20	1.61
	86.50	33.71	67.73	0.00	0.0598	10.31	453.7	388.39	0.0778	678.9	12.221	25.57	15.19	1.61
	87.42	33.71	67.75	0.00	0.0597	10.29	452.9	387.62	0.0782	683.4	12.301	25.73	15.29	1.61
	88.50	33.70	67.73	0.00	0.0598	10.30	453.1	387.90	0.0780	683.3	12.299	25.74	15.29	1.61
	89.42	33.71	67.73	0.00	0.0597	10.29	452.7	387.54	0.0788	690.7	12.433	26.02	15.45	1.61
	90.43	33.68	67.73	0.00	0.0596	10.27	451.9	386.83	0.0792	695.8	12.524	26.21	15.57	1.61
	91.43	33.68	67.70	-0.00	0.0597	10.30	453.1	388.02	0.0787	689.6	12.413	25.99	15.43	1.61
	92.43	33.69	67.75	0.00	0.0597	10.29	452.9	387.56	0.0797	699.7	12.594	26.35	15.66	1.61
	93.41	33.64	67.73	0.00	0.0597	10.29	452.7	387.51	0.0793	700.3	12.606	26.37	15.67	1.61
	94.43	33.59	67.73	-0.00	0.0597	10.28	452.5	387.21	0.0793	699.0	12.582	26.32	15.63	1.61
	95.43	33.62	67.75	-0.00	0.0596	10.28	452.4	387.10	0.0791	696.3	12.534	26.21	15.58	1.61
	96.44	33.56	67.70	-0.00	0.0597	10.29	452.6	387.43	0.0793	698.4	12.571	26.31	15.62	1.61
	97.41	33.60	67.73	0.00	0.0597	10.29	452.6	387.36	0.0797	700.7	12.613	26.39	15.67	1.61
	98.44	33.63	67.75	-0.00	0.0597	10.29	452.6	387.25	0.0799	704.3	12.677	26.51	15.76	1.61
	99.48	33.62	67.73	0.00	0.0597	10.30	453.2	387.87	0.0799	704.8	12.687	26.54	15.77	1.61
	100.43	33.64	67.75	0.00	0.0596	10.28	452.1	386.87	0.0801	709.0	12.762	26.69	15.86	1.61
	101.43	33.67	67.75	0.00	0.0596	10.28	452.2	386.96	0.0804	712.3	12.821	26.82	15.93	1.61
	102.41	33.68	67.73	0.00	0.0597	10.28	452.4	387.31	0.0803	713.5	12.843	26.87	15.96	1.61
	103.43	33.69	67.73	-0.00	0.0596	10.28	452.2	387.12	0.0807	719.7	12.955	27.11	16.10	1.61
	104.43	33.74	67.73	0.00	0.0596	10.27	452.0	387.01	0.0810	721.5	12.988	27.18	16.14	1.61
	105.42	33.75	67.73	-0.00	0.0596	10.26	451.4	386.52	0.0809	718.8	12.939	27.08	16.08	1.61
	106.44	33.80	67.73	-0.00	0.0596	10.27	451.9	387.00	0.0807	716.2	12.892	26.99	16.03	1.61
	107.42	33.74	67.73	0.00	0.0596	10.27	451.9	386.92	0.0807	715.4	12.877	26.95	16.00	1.62
	108.42	33.71	67.73	0.00	0.0596	10.27	451.7	386.68	0.0806	722.6	13.007	27.22	16.16	1.61
	109.42	33.71	67.70	0.00	0.0596	10.25	451.2	386.40	0.0809	719.7	12.954	27.12	16.10	1.61
	110.42	33.69	67.75	0.00	0.0595	10.26	451.3	386.25	0.0812	724.3	13.037	27.27	16.20	1.61
	111.43	33.62	67.73	0.00	0.0595	10.26	451.4	386.30	0.0814	726.6	13.080	27.36	16.24	1.61
	112.43	33.65	67.75	-0.00	0.0595	10.26	451.3	386.13	0.0816	729.9	13.138	27.48	16.32	1.62
	113.44	33.64	67.73	-0.00	0.0595	10.25	451.0	386.02	0.0818	734.9	13.228	27.68	16.42	1.61
	114.41	33.61	67.70	0.00	0.0595	10.24	450.6	385.79	0.0822	736.7	13.261	27.75	16.46	1.61
	115.42	33.60	67.73	0.00	0.0596	10.27	451.8	386.67	0.0818	733.6	13.205	27.62	16.39	1.61
	116.41	33.58	67.73	0.00	0.0597	10.29	452.6	387.31	0.0819	731.5	13.167	27.54	16.35	1.61
	117.42	33.62	67.75	0.00	0.0597	10.28	452.4	387.03	0.0824	741.1	13.340	27.90	16.55	1.61
	118.41	33.63	67.72	0.00	0.0596	10.27	451.8	386.69	0.0824	741.0	13.338	27.91	16.55	1.61
	119.42	33.62	67.73	0.00	0.0595	10.25	450.9	385.94	0.0826	744.7	13.405	28.04	16.63	1.62
	120.50	33.62	67.73	0.00	0.0596	10.27	451.9	386.81	0.0831	749.7	13.495	28.23	16.74	1.61
	121.42	33.64	67.73	0.00	0.0596	10.27	452.0	386.91	0.0832	750.4	13.507	28.26	16.75	1.61
	122.43	33.64	67.73	-0.00	0.0596	10.28	452.1	386.98	0.0829	749.5	13.491	28.23	16.73	1.61
	123.43	33.71	67.75	0.00	0.0596	10.28	452.4	387.21	0.0832	749.1	13.484	28.21	16.73	1.61
	124.43	33.68	67.75	0.00	0.0597	10.28	452.2	386.99	0.0835	755.1	13.591	28.43	16.85	1.61
