Jul 28 2015 at 12:10:31
Frequency: 1.00Hz.
CO2
Zero:  Value:0.95  Date:18 Mar 2005	 at 07:22:33	
Span:  Value:1.00  Date:18 Mar 2005	 at 07:25:09	
H2O
Zero:  Value:0.71  Date:18 Mar 2005	 at 07:52:31	
Span:  Value:0.99  Date:18 Mar 2005	 at 11:44:01	
	Relative Time	Temperature	Pressure	Aux Input	CO2 Absorptance	CO2 mmol/m3	CO2 mg/m3	CO2 umol/mol	H2O Absorptance	H2O mmol/m3	H2O g/m3	H2O mmol/mol	H2O(°C)	Cooler Voltage
	0.12	29.46	67.68	-0.00	0.0626	10.93	480.8	406.20	0.0383	248.4	4.471	9.23	0.25	1.59
	1.11	29.49	67.70	0.00	0.0625	10.92	480.6	405.92	0.0400	259.9	4.679	9.66	0.88	1.59
	2.20	29.48	67.68	-0.00	0.0620	10.85	477.3	403.30	0.0406	277.9	5.002	10.33	1.81	1.59
	3.12	29.48	67.68	-0.00	0.0622	10.88	478.8	404.57	0.0405	270.6	4.871	10.06	1.44	1.59
	4.15	29.50	67.68	-0.00	0.0622	10.86	478.0	403.95	0.0400	260.7	4.693	9.69	0.92	1.59
	5.12	29.51	67.70	0.00	0.0620	10.85	477.2	403.15	0.0392	257.9	4.643	9.59	0.78	1.59
	6.13	29.48	67.70	0.00	0.0617	10.77	473.9	400.30	0.0385	250.5	4.509	9.31	0.37	1.59
	7.13	29.48	67.70	0.00	0.0619	10.80	475.1	401.35	0.0404	269.2	4.845	10.00	1.37	1.59
	8.13	29.54	67.70	0.00	0.0620	10.83	476.4	402.49	0.0404	269.3	4.847	10.01	1.37	1.59
	9.13	29.52	67.70	-0.00	0.0618	10.76	473.3	399.85	0.0420	280.0	5.039	10.41	1.92	1.59
	10.11	29.53	67.70	0.00	0.0620	10.78	474.4	400.80	0.0432	301.0	5.419	11.19	2.94	1.59
	11.20	29.57	67.68	-0.00	0.0619	10.77	473.9	400.56	0.0432	294.1	5.294	10.94	2.61	1.59
	12.11	29.58	67.68	0.00	0.0619	10.74	472.8	399.58	0.0414	283.7	5.107	10.55	2.11	1.59
	13.12	29.59	67.68	0.00	0.0620	10.81	475.5	401.93	0.0421	281.6	5.068	10.47	2.00	1.59
	14.18	29.56	67.68	0.00	0.0617	10.72	471.8	398.72	0.0431	291.1	5.240	10.83	2.47	1.59
	15.12	29.54	67.68	0.00	0.0615	10.68	469.7	396.97	0.0444	303.2	5.457	11.27	3.04	1.59
	16.11	29.57	67.68	0.00	0.0614	10.67	469.4	396.77	0.0459	317.7	5.719	11.82	3.70	1.59
	17.14	29.50	67.68	-0.00	0.0613	10.65	468.4	395.85	0.0451	313.8	5.649	11.67	3.52	1.59
	18.13	29.56	67.70	0.00	0.0614	10.65	468.8	396.09	0.0460	315.3	5.675	11.72	3.59	1.59
	19.13	29.59	67.70	0.00	0.0613	10.65	468.7	396.03	0.0459	319.0	5.742	11.86	3.76	1.59
	20.12	29.56	67.70	0.00	0.0612	10.64	468.3	395.62	0.0446	307.7	5.538	11.44	3.25	1.59
	21.12	29.58	67.68	0.00	0.0615	10.68	470.1	397.34	0.0444	304.6	5.484	11.33	3.11	1.59
	22.14	29.56	67.73	-0.00	0.0614	10.69	470.5	397.38	0.0455	315.2	5.674	11.71	3.59	1.59
	23.12	29.58	67.72	-0.00	0.0614	10.67	469.7	396.70	0.0460	320.2	5.763	11.90	3.81	1.59
	24.12	29.54	67.70	0.00	0.0614	10.68	470.0	397.08	0.0466	327.7	5.899	12.18	4.14	1.59
	25.12	29.52	67.68	0.00	0.0614	10.66	469.0	396.35	0.0471	330.4	5.947	12.28	4.25	1.59
	26.11	29.52	67.70	0.00	0.0613	10.67	469.7	396.79	0.0473	331.6	5.969	12.33	4.31	1.59
	27.11	29.52	67.70	0.00	0.0614	10.65	468.6	395.89	0.0468	328.2	5.908	12.20	4.16	1.59
	28.13	29.50	67.72	-0.00	0.0613	10.65	468.7	395.77	0.0466	324.5	5.841	12.06	4.00	1.59
	29.14	29.50	67.70	-0.00	0.0614	10.67	469.3	396.47	0.0464	330.9	5.957	12.30	4.28	1.59
	30.11	29.52	67.68	0.00	0.0611	10.62	467.5	395.04	0.0485	352.5	6.345	13.11	5.18	1.59
	31.14	29.58	67.68	-0.00	0.0608	10.57	465.1	393.11	0.0512	373.1	6.715	13.87	6.00	1.59
	32.12	29.61	67.68	0.00	0.0607	10.53	463.3	391.59	0.0501	357.9	6.443	13.31	5.41	1.59
	33.12	29.58	67.70	0.00	0.0609	10.55	464.3	392.28	0.0502	362.3	6.521	13.47	5.58	1.59
	34.12	29.58	67.70	0.00	0.0607	10.53	463.2	391.38	0.0519	384.2	6.915	14.28	6.43	1.59
	35.13	29.56	67.70	-0.00	0.0607	10.52	462.9	391.09	0.0530	393.1	7.076	14.61	6.76	1.59
	36.13	29.56	67.70	-0.00	0.0606	10.50	462.0	390.29	0.0519	380.9	6.856	14.16	6.30	1.59
	37.13	29.55	67.65	0.00	0.0605	10.50	462.0	390.57	0.0534	390.5	7.030	14.53	6.66	1.59
	38.11	29.48	67.68	0.00	0.0604	10.45	459.8	388.46	0.0516	375.6	6.761	13.96	6.10	1.59
	39.12	29.45	67.70	-0.00	0.0607	10.51	462.6	390.67	0.0526	385.5	6.939	14.32	6.47	1.59
	40.11	29.39	67.72	0.00	0.0608	10.56	464.5	392.04	0.0519	377.2	6.790	14.01	6.15	1.59
	41.15	29.37	67.70	-0.00	0.0610	10.53	463.3	391.14	0.0503	359.7	6.475	13.36	5.47	1.59
	42.12	29.33	67.70	0.00	0.0608	10.53	463.5	391.26	0.0512	368.4	6.632	13.69	5.81	1.59
	43.12	29.33	67.72	0.00	0.0606	10.52	462.9	390.70	0.0526	383.0	6.894	14.22	6.37	1.59
	44.12	29.29	67.68	0.00	0.0606	10.50	462.1	390.22	0.0522	379.2	6.825	14.09	6.22	1.59
	45.12	29.29	67.68	0.00	0.0607	10.52	462.8	390.82	0.0521	375.9	6.766	13.97	6.10	1.59
	46.13	29.34	67.70	-0.00	0.0607	10.53	463.2	391.07	0.0523	380.6	6.851	14.14	6.28	1.59
	47.13	29.29	67.70	-0.00	0.0607	10.53	463.3	391.07	0.0527	382.5	6.885	14.21	6.35	1.59
	48.13	29.29	67.70	0.00	0.0605	10.47	460.9	389.05	0.0535	397.3	7.151	14.76	6.90	1.59
	49.12	29.27	67.70	-0.00	0.0606	10.47	460.8	388.98	0.0531	390.8	7.034	14.51	6.66	1.59
	50.20	29.23	67.71	0.00	0.0605	10.48	461.1	389.10	0.0539	393.0	7.074	14.59	6.74	1.59
	51.14	29.23	67.73	0.00	0.0604	10.44	459.5	387.68	0.0554	409.7	7.374	15.21	7.35	1.59
	52.13	29.25	67.68	-0.00	0.0603	10.44	459.2	387.69	0.0565	423.1	7.617	15.72	7.82	1.59
	53.13	29.29	67.68	0.00	0.0601	10.41	458.0	386.75	0.0566	424.2	7.636	15.76	7.86	1.59
	54.12	29.31	67.70	0.00	0.0602	10.40	457.5	386.21	0.0583	439.7	7.915	16.33	8.39	1.59
	55.13	29.33	67.70	-0.00	0.0600	10.36	455.7	384.75	0.0601	463.7	8.347	17.22	9.18	1.59
	56.11	29.37	67.72	0.00	0.0597	10.32	453.9	383.13	0.0606	466.6	8.400	17.33	9.27	1.59
	57.20	29.37	67.68	-0.00	0.0601	10.36	456.0	385.12	0.0583	441.7	7.950	16.41	8.46	1.59
	58.11	29.37	67.72	0.00	0.0600	10.38	456.7	385.49	0.0597	454.6	8.182	16.88	8.88	1.59
	59.12	29.35	67.70	-0.00	0.0600	10.38	456.8	385.66	0.0597	457.9	8.243	17.01	8.99	1.59
	60.14	29.32	67.73	-0.00	0.0601	10.35	455.6	384.47	0.0591	459.6	8.273	17.07	9.04	1.59
	61.14	29.37	67.70	-0.00	0.0599	10.35	455.4	384.51	0.0599	460.2	8.284	17.10	9.07	1.59
	62.12	29.38	67.70	0.00	0.0600	10.35	455.2	384.39	0.0607	468.7	8.437	17.41	9.34	1.59
	63.13	29.41	67.68	-0.00	0.0599	10.35	455.5	384.81	0.0612	471.2	8.482	17.52	9.42	1.59
	64.12	29.41	67.70	0.00	0.0597	10.29	452.6	382.16	0.0626	491.8	8.852	18.27	10.06	1.59
	65.11	29.43	67.70	0.00	0.0595	10.29	452.8	382.42	0.0631	492.1	8.858	18.29	10.07	1.59
	66.13	29.48	67.70	-0.00	0.0597	10.30	453.2	382.77	0.0628	492.9	8.871	18.32	10.09	1.59
	67.13	29.48	67.70	-0.00	0.0598	10.31	453.5	383.07	0.0621	489.0	8.802	18.17	9.97	1.59
	68.11	29.52	67.72	0.00	0.0599	10.33	454.6	383.92	0.0623	483.4	8.701	17.96	9.80	1.59
	69.20	29.54	67.68	0.00	0.0597	10.31	453.7	383.40	0.0626	490.2	8.823	18.23	10.01	1.59
	70.14	29.54	67.68	0.00	0.0597	10.31	453.5	383.30	0.0621	486.7	8.761	18.10	9.91	1.59
	71.14	29.57	67.70	0.00	0.0598	10.32	453.9	383.49	0.0616	474.6	8.542	17.64	9.53	1.59
	72.14	29.52	67.68	-0.00	0.0600	10.34	454.8	384.31	0.0606	463.5	8.344	17.24	9.18	1.59
	73.12	29.55	67.70	0.00	0.0598	10.32	454.2	383.68	0.0622	485.6	8.740	18.05	9.87	1.59
	74.12	29.50	67.68	0.00	0.0597	10.31	453.5	383.20	0.0630	495.3	8.915	18.42	10.17	1.59
	75.11	29.50	67.70	0.00	0.0596	10.29	452.6	382.29	0.0630	497.5	8.956	18.49	10.23	1.59
	76.11	29.52	67.70	0.00	0.0596	10.27	452.0	381.77	0.0634	501.3	9.024	18.63	10.35	1.59
	77.13	29.53	67.70	-0.00	0.0595	10.25	450.9	380.90	0.0648	515.0	9.270	19.14	10.75	1.59
	78.12	29.49	67.72	0.00	0.0595	10.26	451.4	381.15	0.0647	508.3	9.150	18.89	10.55	1.59
	79.12	29.46	67.70	-0.00	0.0596	10.27	451.9	381.71	0.0648	512.9	9.233	19.06	10.69	1.59
	80.12	29.48	67.70	0.00	0.0596	10.27	451.9	381.64	0.0643	506.5	9.116	18.82	10.50	1.59
	81.11	29.45	67.70	0.00	0.0595	10.26	451.3	381.10	0.0640	510.1	9.181	18.95	10.60	1.59
	82.13	29.46	67.72	-0.00	0.0594	10.25	451.0	380.82	0.0645	513.9	9.251	19.09	10.72	1.59
	83.10	29.42	67.67	0.00	0.0595	10.23	450.3	380.43	0.0642	511.2	9.202	19.00	10.64	1.59
	84.13	29.40	67.70	0.00	0.0596	10.26	451.4	381.19	0.0645	514.3	9.257	19.11	10.73	1.59
	85.13	29.41	67.70	0.00	0.0593	10.23	449.9	379.96	0.0655	524.5	9.441	19.49	11.02	1.59
	86.11	29.41	67.68	0.00	0.0594	10.23	450.2	380.31	0.0656	521.7	9.391	19.39	10.94	1.59
	87.13	29.39	67.68	0.00	0.0594	10.23	450.2	380.26	0.0655	523.1	9.416	19.44	10.98	1.59
	88.12	29.37	67.70	-0.00	0.0592	10.20	448.7	378.82	0.0655	528.0	9.504	19.61	11.12	1.59
	89.14	29.35	67.70	-0.00	0.0592	10.20	448.6	378.77	0.0663	536.2	9.652	19.92	11.35	1.59
	90.12	29.37	67.70	-0.00	0.0593	10.21	449.1	379.20	0.0659	533.6	9.605	19.82	11.28	1.59
	91.14	29.35	67.70	-0.00	0.0592	10.20	448.6	378.75	0.0669	540.4	9.727	20.07	11.47	1.59
	92.18	29.33	67.70	0.00	0.0592	10.18	447.9	378.10	0.0675	548.6	9.875	20.38	11.70	1.59
	93.13	29.35	67.70	-0.00	0.0592	10.18	447.9	378.16	0.0673	550.2	9.904	20.44	11.74	1.59
	94.19	29.33	67.67	-0.00	0.0591	10.18	447.9	378.25	0.0671	543.1	9.775	20.18	11.54	1.59
	95.11	29.31	67.70	0.00	0.0592	10.19	448.2	378.35	0.0678	548.2	9.867	20.36	11.68	1.59
	96.11	29.37	67.70	0.00	0.0592	10.19	448.3	378.53	0.0678	553.0	9.955	20.55	11.82	1.59
	97.11	29.36	67.68	0.00	0.0591	10.16	447.0	377.53	0.0689	564.3	10.157	20.97	12.12	1.59
	98.12	29.39	67.65	0.00	0.0591	10.17	447.4	378.04	0.0684	557.5	10.035	20.73	11.94	1.59
	99.14	29.39	67.73	0.00	0.0590	10.13	445.7	376.15	0.0683	558.4	10.051	20.74	11.97	1.59
	100.12	29.39	67.70	0.00	0.0591	10.16	446.8	377.31	0.0680	556.2	10.011	20.66	11.91	1.59
	101.12	29.41	67.70	-0.00	0.0591	10.16	446.8	377.34	0.0683	559.0	10.062	20.77	11.98	1.59
	102.13	29.39	67.68	-0.00	0.0590	10.17	447.4	377.88	0.0687	558.2	10.048	20.75	11.96	1.59
	103.21	29.39	67.70	-0.00	0.0590	10.13	445.8	376.46	0.0679	553.4	9.961	20.56	11.83	1.59
	104.13	29.37	67.70	-0.00	0.0590	10.15	446.4	376.90	0.0677	554.0	9.973	20.58	11.85	1.59
	105.13	29.33	67.73	-0.00	0.0590	10.12	445.3	375.78	0.0683	557.1	10.027	20.68	11.93	1.59
	106.19	29.32	67.70	0.00	0.0590	10.13	445.6	376.23	0.0681	549.8	9.897	20.42	11.73	1.59
	107.11	29.33	67.68	0.00	0.0590	10.13	445.7	376.42	0.0673	547.4	9.854	20.34	11.66	1.59
	108.19	29.31	67.70	0.00	0.0589	10.11	444.7	375.43	0.0683	560.2	10.084	20.81	12.01	1.59
	109.11	29.29	67.68	0.00	0.0588	10.11	444.6	375.47	0.0679	548.2	9.868	20.37	11.68	1.59
	110.14	29.31	67.68	0.00	0.0589	10.10	444.5	375.40	0.0686	560.5	10.090	20.83	12.02	1.59
	111.12	29.31	67.68	0.00	0.0588	10.08	443.5	374.48	0.0685	559.0	10.061	20.77	11.98	1.59
	112.12	29.35	67.68	0.00	0.0589	10.11	445.1	375.90	0.0692	568.1	10.226	21.11	12.23	1.59
	113.12	29.35	67.72	0.00	0.0588	10.11	444.8	375.38	0.0701	579.9	10.438	21.53	12.54	1.59
	114.11	29.37	67.68	0.00	0.0589	10.10	444.3	375.32	0.0702	573.9	10.329	21.33	12.38	1.59
	115.11	29.35	67.68	0.00	0.0588	10.11	444.9	375.80	0.0701	570.1	10.262	21.19	12.28	1.59
	116.13	29.35	67.68	0.00	0.0589	10.13	445.6	376.32	0.0703	578.6	10.415	21.50	12.51	1.59
	117.12	29.35	67.68	0.00	0.0587	10.10	444.5	375.41	0.0712	587.6	10.576	21.84	12.74	1.59
	118.12	29.35	67.68	-0.00	0.0587	10.08	443.5	374.57	0.0712	596.8	10.742	22.18	12.98	1.59
	119.12	29.34	67.68	0.00	0.0587	10.07	443.2	374.34	0.0714	592.7	10.669	22.03	12.87	1.59
	120.11	29.33	67.68	0.00	0.0588	10.09	444.0	375.01	0.0712	591.1	10.640	21.96	12.83	1.59
	121.12	29.37	67.68	0.00	0.0587	10.05	442.4	373.68	0.0714	597.4	10.753	22.20	12.99	1.59
